time, gx, gy, gz, ax, ay, az, mx, my, mz
10807310,-0.120,-0.030,-0.020,+0.023,-0.065,+9.919,+24.500,+4.700,-36.800
10807320,-0.040,-0.010,-0.100,+0.028,-0.047,+9.887,+25.400,+3.100,-33.600
10807330,-0.110,+0.070,-0.030,+0.028,-0.073,+9.879,+25.300,+2.900,-33.500
10807340,-0.140,-0.040,-0.020,+0.030,-0.074,+9.926,+25.400,+2.700,-33.800
10807350,-0.070,+0.010,+0.030,+0.031,-0.065,+9.925,+25.400,+3.100,-33.800
10807360,-0.190,-0.060,+0.130,+0.025,-0.072,+9.951,+24.600,+4.000,-36.800
10807370,-0.100,-0.030,-0.040,+0.027,-0.070,+9.914,+24.300,+4.500,-36.900
10807380,-0.160,+0.000,-0.130,+0.020,-0.076,+9.882,+25.300,+2.900,-33.800
10807390,-0.100,-0.060,+0.040,+0.004,-0.069,+9.909,+25.600,+3.100,-34.100
10807400,+0.000,+0.020,-0.020,+0.024,-0.060,+9.897,+25.300,+2.900,-33.800
10807410,-0.130,-0.050,-0.110,+0.029,-0.062,+9.874,+25.400,+2.400,-33.300
10807420,-0.140,-0.020,-0.120,+0.021,-0.079,+9.906,+25.300,+3.100,-33.800
10807430,-0.120,+0.000,+0.050,+0.022,-0.061,+9.932,+25.100,+2.600,-33.600
10807440,-0.090,+0.020,-0.040,+0.031,-0.060,+9.916,+24.300,+4.500,-36.900
10807450,-0.120,-0.070,-0.040,+0.037,-0.073,+9.915,+25.300,+2.600,-33.800
10807460,-0.160,-0.050,-0.030,+0.024,-0.071,+9.907,+25.100,+3.200,-33.800
10807470,-0.020,-0.110,-0.080,+0.030,-0.065,+9.937,+25.600,+2.900,-33.300
10807480,-0.130,+0.060,-0.070,+0.033,-0.076,+9.920,+25.300,+2.200,-34.100
10807490,-0.130,-0.050,+0.020,+0.027,-0.070,+9.958,+25.300,+2.900,-33.800
10807500,-0.090,-0.020,+0.010,+0.052,-0.045,+9.928,+25.300,+2.600,-33.800
10807510,-0.150,-0.030,-0.070,+0.028,-0.094,+9.940,+25.600,+2.900,-34.000
10807520,-0.050,+0.030,-0.030,+0.024,-0.073,+9.910,+25.400,+2.200,-33.800
10807530,-0.130,+0.060,-0.060,+0.025,-0.078,+9.880,+25.100,+2.900,-34.100
10807540,-0.050,+0.010,-0.040,+0.042,-0.084,+9.910,+25.100,+2.700,-33.800
10807550,-0.070,-0.020,-0.050,+0.032,-0.090,+9.915,+25.400,+2.700,-33.600
10807560,-0.160,-0.050,+0.050,+0.031,-0.078,+9.919,+25.100,+2.900,-34.100
10807570,-0.120,-0.030,-0.040,+0.024,-0.058,+9.915,+25.100,+2.600,-33.800
10807580,-0.010,+0.000,-0.070,+0.026,-0.070,+9.916,+24.500,+4.400,-37.400
10807590,-0.150,+0.080,-0.040,+0.012,-0.062,+9.919,+25.600,+2.900,-34.000
10807600,-0.110,-0.050,-0.020,+0.038,-0.061,+9.923,+25.600,+2.900,-33.800
10807610,-0.100,+0.010,-0.030,+0.028,-0.064,+9.923,+24.900,+2.900,-33.800
10807620,-0.160,+0.000,-0.040,+0.033,-0.080,+9.921,+25.800,+2.700,-34.000
10807630,-0.090,-0.050,-0.070,+0.011,-0.082,+9.930,+24.900,+2.600,-34.000
10807640,-0.160,+0.020,-0.010,+0.025,-0.082,+9.899,+25.300,+2.900,-33.800
10807650,-0.100,+0.030,-0.100,+0.028,-0.072,+9.941,+24.900,+2.600,-33.800
10807660,+0.000,+0.030,-0.040,+0.016,-0.069,+9.940,+25.400,+2.400,-34.000
10807670,-0.090,+0.030,+0.010,+0.033,-0.082,+9.917,+25.400,+2.600,-33.300
10807680,-0.120,-0.080,-0.060,+0.027,-0.059,+9.918,+25.100,+2.900,-34.000
10807690,-0.060,-0.110,+0.000,+0.019,-0.062,+9.920,+25.300,+2.600,-33.300
10807700,-0.180,-0.140,-0.050,+0.027,-0.072,+9.928,+25.400,+2.900,-34.000
10807710,-0.120,-0.100,+0.000,+0.023,-0.076,+9.917,+25.800,+2.600,-33.300
10807720,-0.090,-0.030,+0.010,+0.035,-0.054,+9.932,+25.400,+2.700,-33.600
10807730,-0.140,-0.010,-0.060,+0.045,-0.060,+9.923,+25.300,+2.900,-34.100
10807740,-0.080,-0.040,+0.070,+0.022,-0.060,+9.914,+25.400,+2.200,-33.500
10807750,-0.060,+0.040,+0.030,+0.033,-0.072,+9.893,+25.400,+2.700,-34.000
10807760,-0.150,+0.050,-0.080,+0.023,-0.078,+9.911,+25.600,+2.900,-34.000
10807770,-0.030,-0.070,-0.010,+0.023,-0.062,+9.939,+25.900,+2.700,-33.600
10807780,-0.150,-0.050,-0.040,+0.035,-0.078,+9.924,+25.300,+2.700,-34.000
10807790,-0.100,+0.000,-0.050,+0.023,-0.084,+9.915,+25.600,+2.700,-34.000
10807800,-0.120,+0.000,+0.100,+0.024,-0.066,+9.926,+25.400,+2.700,-33.800
10807810,-0.140,+0.030,+0.000,+0.036,-0.061,+9.920,+25.400,+2.900,-33.800
10807820,-0.090,+0.010,-0.040,+0.028,-0.077,+9.912,+25.300,+2.600,-34.000
10807830,-0.070,-0.010,-0.060,+0.030,-0.069,+9.931,+25.600,+2.600,-33.600
10807840,-0.110,-0.060,-0.040,+0.021,-0.067,+9.945,+24.100,+4.200,-37.400
10807850,-0.080,-0.060,-0.020,+0.007,-0.062,+9.915,+25.400,+2.600,-33.800
10807860,-0.180,-0.010,+0.000,+0.024,-0.070,+9.886,+25.300,+2.700,-34.000
10807870,-0.170,+0.020,-0.030,+0.005,-0.098,+9.905,+25.400,+2.600,-33.800
10807880,-0.090,+0.000,-0.020,+0.033,-0.074,+9.902,+24.600,+4.200,-37.300
10807890,-0.130,+0.000,-0.020,+0.035,-0.075,+9.912,+25.400,+2.700,-34.000
10807900,-0.050,+0.010,+0.040,+0.033,-0.066,+9.918,+25.300,+2.600,-34.000
10807910,-0.070,+0.030,+0.040,+0.031,-0.064,+9.911,+25.300,+2.900,-34.000
10807920,-0.100,+0.020,-0.020,+0.019,-0.068,+9.935,+24.500,+3.900,-37.300
10807930,-0.220,+0.020,-0.030,+0.030,-0.079,+9.942,+24.600,+3.900,-37.300
10807940,-0.100,+0.020,-0.050,+0.031,-0.084,+9.928,+25.300,+2.700,-34.000
10807950,-0.160,+0.090,-0.060,+0.025,-0.066,+9.930,+25.300,+2.700,-33.600
10807960,-0.110,+0.020,+0.020,+0.027,-0.072,+9.933,+25.300,+2.700,-33.600
10807970,-0.140,-0.040,-0.040,+0.035,-0.077,+9.920,+24.600,+4.000,-36.900
10807980,-0.070,+0.030,+0.050,+0.015,-0.079,+9.933,+25.400,+2.400,-33.500
10807990,-0.140,-0.020,-0.070,+0.016,-0.080,+9.913,+25.300,+2.700,-33.500
10808000,+0.000,-0.010,+0.120,+0.012,-0.060,+9.930,+25.300,+2.700,-33.600
10808010,-0.030,+0.050,+0.040,+0.028,-0.066,+9.963,+25.300,+2.600,-33.800
10808020,-0.080,+0.000,+0.020,+0.018,-0.079,+9.909,+25.400,+2.700,-33.800
10808030,-0.110,-0.060,+0.000,+0.022,-0.085,+9.916,+25.600,+2.700,-33.600
10808040,-0.070,-0.060,-0.020,+0.022,-0.076,+9.938,+25.600,+2.900,-34.100
10808050,-0.150,-0.080,-0.070,+0.019,-0.078,+9.910,+25.400,+2.700,-33.600
10808060,-0.140,-0.070,+0.000,+0.011,-0.076,+9.926,+25.400,+2.400,-34.000
10808070,-0.060,-0.060,-0.060,+0.023,-0.070,+9.932,+25.400,+2.700,-33.600
10808080,-0.010,+0.020,-0.100,+0.002,-0.068,+9.954,+25.100,+2.600,-33.600
10808090,-0.040,-0.010,-0.160,+0.009,-0.077,+9.918,+25.400,+2.700,-33.800
10808100,-0.130,+0.030,-0.140,+0.025,-0.070,+9.924,+24.600,+4.500,-36.900
10808110,+0.010,-0.020,-0.110,+0.016,-0.050,+9.940,+25.300,+2.600,-33.500
10808120,-0.110,+0.040,-0.100,+0.028,-0.057,+9.897,+25.300,+3.100,-33.500
10808130,-0.110,+0.080,-0.130,+0.012,-0.088,+9.911,+25.600,+2.400,-33.500
10808140,-0.130,+0.080,-0.050,+0.026,-0.063,+9.915,+24.500,+4.500,-36.900
10808150,-0.100,+0.070,-0.060,+0.025,-0.061,+9.958,+24.500,+4.000,-36.800
10808160,+0.010,-0.020,-0.120,+0.012,-0.076,+9.915,+25.400,+2.700,-33.500
10808170,-0.030,+0.020,-0.090,+0.034,-0.075,+9.889,+25.800,+2.700,-33.600
10808180,-0.070,-0.080,-0.100,+0.025,-0.075,+9.923,+25.600,+2.600,-33.600
10808190,-0.050,+0.030,+0.040,+0.018,-0.068,+9.918,+24.500,+4.200,-37.100
10808200,-0.070,+0.010,-0.050,+0.009,-0.064,+9.925,+24.500,+4.200,-34.300
10808210,-0.010,-0.010,-0.030,+0.018,-0.062,+9.897,+25.400,+2.900,-33.800
10808220,-0.150,+0.010,-0.050,+0.006,-0.062,+9.927,+24.500,+4.400,-36.900
10808230,+0.060,-0.020,+0.100,+0.031,-0.068,+9.924,+25.600,+2.400,-33.600
10808240,-0.100,+0.010,-0.070,+0.025,-0.075,+9.933,+25.300,+2.600,-33.000
10808250,-0.130,+0.040,-0.100,+0.034,-0.066,+9.930,+25.800,+2.900,-33.500
10808260,-0.060,+0.010,-0.020,+0.022,-0.070,+9.916,+24.100,+4.000,-37.100
10808270,-0.060,-0.020,-0.100,+0.023,-0.084,+9.928,+25.400,+2.600,-33.500
10808280,+0.040,+0.000,-0.110,+0.025,-0.070,+9.931,+25.600,+2.400,-33.100
10808290,-0.060,-0.060,-0.030,+0.020,-0.074,+9.932,+25.300,+3.100,-33.500
10808300,-0.050,-0.030,-0.030,+0.025,-0.066,+9.920,+25.300,+2.400,-33.800
10808310,-0.060,+0.060,-0.070,+0.021,-0.081,+9.941,+25.300,+2.900,-33.500
10808320,+0.110,-0.060,-0.040,+0.022,-0.071,+9.943,+25.300,+3.100,-34.500
10808330,+0.170,-0.110,-0.060,+0.021,-0.076,+9.941,+25.600,+2.600,-32.800
10808340,+0.400,-0.190,-0.080,+0.022,-0.076,+9.942,+25.600,+2.200,-33.600
10808350,+0.720,-0.330,-0.090,+0.020,-0.071,+9.953,+25.300,+2.600,-34.000
10808360,+2.400,-0.530,-0.300,+0.019,-0.115,+10.086,+25.400,+2.900,-34.000
10808370,+7.410,-1.390,-0.350,+0.007,-0.124,+10.174,+24.800,+2.700,-33.800
10808380,+8.960,-1.670,-0.410,+0.029,-0.029,+9.964,+24.800,+4.000,-37.300
10808390,+8.880,-1.110,+0.950,-0.054,+0.078,+9.933,+25.400,+2.400,-34.000
10808400,+7.230,-2.640,+0.650,+0.039,+0.037,+9.894,+24.500,+3.900,-37.100
10808410,+4.050,-5.360,+0.190,+0.020,+0.076,+9.909,+25.400,+2.400,-33.800
10808420,+3.340,-3.750,+0.220,+0.094,-0.070,+9.779,+25.400,+2.100,-33.300
10808430,+2.940,-0.940,-0.310,+0.076,-0.028,+9.790,+25.300,+2.400,-33.600
10808440,+2.550,+0.290,-0.430,+0.073,+0.027,+9.872,+25.400,+2.100,-33.100
10808450,+2.530,+1.640,-0.900,+0.109,+0.047,+9.909,+25.600,+2.100,-33.300
10808460,+2.710,+2.400,-0.370,+0.025,+0.042,+9.971,+25.100,+2.400,-33.600
10808470,+3.170,+3.460,-0.250,+0.081,+0.099,+10.059,+24.300,+3.700,-37.300
10808480,+2.220,+7.770,-1.730,+0.209,+0.207,+10.068,+25.400,+2.100,-33.300
10808490,+0.150,+17.760,-2.330,+0.030,+0.378,+10.419,+25.300,+2.400,-33.600
10808500,+5.690,+9.960,+1.480,-0.246,-0.087,+10.019,+25.800,+2.600,-33.000
10808510,+6.380,+8.290,+1.240,+0.031,+0.024,+9.919,+25.600,+2.100,-33.300
10808520,+2.590,+7.810,+1.310,-0.074,-0.004,+9.969,+25.600,+1.200,-33.000
10808530,+1.740,+8.450,+0.990,-0.028,-0.042,+9.955,+25.900,+1.700,-32.800
10808540,+1.730,+10.430,+1.000,+0.000,+0.045,+9.931,+24.800,+3.500,-36.900
10808550,+0.290,+9.590,+0.910,-0.082,+0.017,+9.891,+25.600,+2.400,-33.100
10808560,-0.410,+6.000,+0.790,-0.137,-0.035,+9.788,+25.600,+1.700,-33.300
10808570,-0.160,+4.470,+0.620,-0.118,-0.033,+9.747,+26.100,+2.100,-33.100
10808580,-1.540,+6.220,+0.220,-0.102,-0.025,+9.713,+25.900,+2.100,-33.000
10808590,-2.620,+5.910,-0.050,-0.139,-0.010,+9.819,+26.100,+2.100,-33.000
10808600,-1.780,+2.280,-0.080,-0.178,+0.101,+9.999,+25.600,+2.100,-32.800
10808610,-0.520,-1.550,+0.000,-0.129,+0.159,+10.000,+25.900,+2.200,-33.100
10808620,-0.330,-2.480,-0.200,-0.123,+0.140,+9.957,+25.300,+3.500,-36.300
10808630,-1.410,-1.890,-0.020,-0.127,+0.070,+9.924,+25.100,+4.000,-36.400
10808640,-2.490,-1.570,-0.300,-0.119,-0.007,+9.837,+26.100,+2.100,-33.100
10808650,-2.680,-3.130,-0.130,-0.160,-0.060,+9.874,+24.900,+3.900,-36.300
10808660,-2.080,-4.160,-0.280,-0.109,-0.023,+9.997,+25.800,+2.100,-33.100
10808670,-2.040,-3.390,-0.590,-0.124,-0.002,+10.106,+26.200,+1.700,-33.300
10808680,-2.990,-2.830,-0.790,-0.111,+0.014,+10.153,+26.100,+2.100,-33.000
10808690,-1.920,-2.740,-0.770,-0.124,+0.062,+10.211,+25.100,+4.000,-36.800
10808700,-1.460,-3.440,+0.070,-0.171,+0.126,+10.096,+25.800,+2.400,-33.100
10808710,-1.280,-2.240,-0.410,-0.086,-0.017,+9.932,+25.400,+2.400,-33.500
10808720,-0.260,-0.670,-0.760,-0.090,+0.103,+9.932,+24.800,+3.500,-33.800
10808730,+1.000,-2.330,-0.570,-0.114,+0.183,+10.021,+25.900,+1.900,-33.300
10808740,+1.480,-3.650,-0.120,-0.080,+0.039,+10.068,+25.100,+3.900,-36.600
10808750,+1.060,-3.870,-0.300,-0.056,+0.048,+10.029,+25.300,+3.500,-36.600
10808760,+0.180,-5.340,-0.400,-0.058,-0.004,+10.079,+25.900,+1.700,-33.100
10808770,-0.620,-4.850,-1.050,-0.023,-0.051,+10.038,+25.900,+1.400,-33.100
10808780,-0.930,-3.890,-1.200,-0.038,+0.014,+10.002,+25.800,+2.100,-33.500
10808790,-0.010,-3.740,-1.270,-0.057,+0.026,+9.992,+25.800,+2.100,-33.500
10808800,+1.980,-3.430,-1.100,-0.038,+0.057,+10.019,+25.800,+2.100,-33.000
10808810,+3.060,-2.400,-1.200,-0.044,+0.128,+10.101,+25.400,+2.400,-33.300
10808820,+3.010,-2.460,-1.370,-0.042,+0.101,+10.129,+25.800,+1.900,-33.300
10808830,+2.490,-4.250,-1.410,-0.059,+0.081,+10.160,+25.800,+2.400,-33.500
10808840,+1.860,-4.500,-1.490,-0.096,+0.104,+10.105,+25.800,+1.900,-33.800
10808850,+1.270,-2.290,-1.480,-0.026,+0.021,+10.088,+25.100,+2.200,-33.600
10808860,-0.590,+0.210,-1.730,-0.038,-0.031,+10.047,+25.400,+2.100,-33.600
10808870,-0.950,+2.830,-1.280,+0.016,-0.038,+10.040,+24.600,+3.900,-37.100
10808880,-1.220,+5.950,-1.670,-0.030,+0.050,+10.047,+25.600,+1.900,-33.500
10808890,-0.760,+7.710,-1.280,-0.009,+0.051,+10.055,+25.400,+2.100,-33.100
10808900,-0.720,+10.060,-1.230,-0.042,+0.090,+10.022,+25.600,+2.100,-33.500
10808910,-0.650,+10.510,-0.590,-0.044,+0.064,+9.993,+25.100,+3.700,-36.900
10808920,-0.030,+9.960,-1.160,-0.015,+0.076,+10.001,+25.600,+1.900,-33.300
10808930,+1.050,+7.260,-0.960,-0.097,+0.025,+9.971,+25.900,+2.100,-33.300
10808940,+1.750,+6.070,-0.970,-0.061,+0.064,+9.953,+26.100,+1.900,-33.500
10808950,+3.290,+3.800,-1.040,-0.060,+0.056,+9.968,+26.100,+2.600,-33.000
10808960,+4.570,+2.210,-1.290,-0.025,+0.170,+9.973,+25.600,+1.900,-33.300
10808970,+4.640,-0.920,-1.590,-0.071,+0.084,+10.041,+25.400,+2.200,-33.100
10808980,+4.010,-5.070,-1.610,-0.066,+0.084,+10.014,+25.800,+1.700,-33.300
10808990,+3.770,-7.860,-2.200,-0.041,+0.072,+9.976,+25.300,+3.700,-36.800
10809000,+4.830,-8.340,-2.440,-0.012,+0.076,+9.925,+25.600,+1.900,-33.500
10809010,+6.220,-8.730,-3.040,-0.058,+0.098,+9.927,+25.600,+2.200,-33.600
10809020,+6.580,-8.420,-2.460,-0.053,+0.160,+9.906,+25.600,+1.600,-33.500
10809030,+6.690,-7.720,-2.850,-0.072,+0.214,+9.870,+25.400,+1.900,-33.100
10809040,+6.030,-6.920,-2.250,-0.049,+0.208,+9.814,+25.600,+1.600,-33.500
10809050,+4.530,-5.880,-2.270,-0.007,+0.158,+9.822,+25.300,+1.400,-33.800
10809060,+5.450,-7.710,-1.720,-0.003,+0.198,+9.912,+25.400,+1.900,-33.600
10809070,+5.030,-8.120,-1.490,+0.027,+0.220,+9.958,+25.300,+1.600,-33.600
10809080,+5.000,-8.650,-1.440,+0.006,+0.176,+9.937,+25.100,+1.600,-33.800
10809090,+4.210,-7.180,-1.350,+0.048,+0.177,+9.940,+24.800,+3.100,-37.400
10809100,+3.760,-6.210,-0.980,+0.003,+0.222,+10.003,+25.300,+1.400,-33.800
10809110,+4.280,-4.850,-0.370,+0.046,+0.236,+10.000,+24.800,+1.400,-34.000
10809120,+4.720,-3.140,-0.210,+0.025,+0.295,+9.995,+24.800,+1.700,-33.800
10809130,+5.000,-2.600,-0.230,+0.044,+0.269,+9.935,+24.800,+1.700,-33.800
10809140,+6.090,-3.000,-0.100,+0.014,+0.289,+9.915,+25.100,+0.900,-33.800
10809150,+6.870,-2.410,-0.280,+0.035,+0.288,+9.945,+24.900,+1.400,-34.000
10809160,+6.770,-2.540,-0.870,+0.014,+0.212,+10.000,+25.300,+0.900,-33.800
10809170,+6.040,-2.660,-0.860,+0.055,+0.202,+10.023,+25.300,+1.600,-33.600
10809180,+5.010,-3.150,-1.020,+0.059,+0.247,+10.003,+24.900,+1.100,-34.100
10809190,+4.070,-2.310,-0.680,+0.059,+0.251,+10.102,+24.800,+0.700,-34.000
10809200,+3.530,-0.220,-0.730,+0.017,+0.336,+10.123,+25.100,+1.100,-33.600
10809210,+3.910,+1.300,-0.380,-0.003,+0.300,+10.104,+24.600,+1.100,-34.100
10809220,+4.550,+2.650,-0.400,+0.017,+0.305,+10.075,+24.600,+1.200,-34.000
10809230,+5.430,+2.640,-0.250,+0.019,+0.311,+10.060,+24.300,+3.100,-37.600
10809240,+6.180,+2.720,-0.130,+0.056,+0.311,+10.134,+24.600,+1.100,-34.100
10809250,+5.710,+0.930,-0.600,+0.063,+0.304,+10.171,+24.800,+0.700,-33.800
10809260,+4.920,-0.650,-0.330,+0.095,+0.321,+10.255,+24.800,+0.700,-34.100
10809270,+4.850,-2.910,-0.570,+0.093,+0.380,+10.274,+24.100,+0.300,-34.100
10809280,+4.580,-4.950,-0.270,+0.087,+0.439,+10.311,+24.500,+0.400,-34.000
10809290,+4.750,-7.220,-0.460,+0.112,+0.448,+10.182,+24.900,+0.900,-34.100
10809300,+5.940,-9.120,-0.270,+0.140,+0.432,+10.106,+25.300,+0.600,-34.000
10809310,+6.530,-11.420,-0.180,+0.132,+0.406,+10.025,+24.800,+0.600,-33.800
10809320,+6.820,-12.170,-0.220,+0.203,+0.326,+10.045,+24.600,+0.300,-34.300
10809330,+7.070,-12.300,-0.360,+0.216,+0.314,+10.010,+23.800,+2.600,-37.800
10809340,+7.950,-12.200,-0.840,+0.220,+0.387,+10.032,+24.000,+0.200,-34.600
10809350,+8.410,-14.250,-0.920,+0.203,+0.370,+10.017,+24.000,+0.200,-34.600
10809360,+8.520,-15.300,-0.830,+0.240,+0.418,+9.995,+24.000,+0.200,-34.800
10809370,+8.220,-15.080,-0.280,+0.281,+0.475,+10.031,+24.500,+0.400,-34.800
10809380,+7.220,-14.300,-0.240,+0.324,+0.480,+10.015,+23.800,-0.100,-34.900
10809390,+6.990,-14.070,+0.470,+0.291,+0.475,+10.072,+23.700,-0.100,-34.900
10809400,+8.620,-15.140,+0.450,+0.348,+0.530,+10.065,+23.700,+0.300,-34.900
10809410,+10.310,-16.500,-0.020,+0.366,+0.586,+10.127,+23.500,-0.500,-35.200
10809420,+11.650,-19.450,+0.030,+0.332,+0.571,+10.072,+22.500,+1.400,-38.500
10809430,+11.840,-20.420,-0.630,+0.428,+0.608,+10.001,+22.900,-0.500,-35.000
10809440,+11.470,-19.200,-0.730,+0.432,+0.569,+10.019,+23.000,-0.100,-35.200
10809450,+10.880,-17.140,-0.480,+0.433,+0.571,+9.997,+22.900,-0.600,-35.200
10809460,+9.940,-14.360,-0.220,+0.466,+0.586,+9.914,+22.500,-0.500,-35.400
10809470,+9.550,-11.360,-0.160,+0.489,+0.568,+9.886,+22.400,-1.000,-35.500
10809480,+9.340,-8.120,-0.420,+0.531,+0.581,+9.862,+22.400,-0.800,-35.700
10809490,+8.980,-6.540,-0.220,+0.522,+0.617,+9.840,+22.700,-1.300,-35.900
10809500,+8.740,-4.030,-0.100,+0.496,+0.692,+9.801,+21.400,+0.300,-39.000
10809510,+8.700,-0.360,+0.130,+0.501,+0.720,+9.897,+22.100,-1.000,-35.900
10809520,+9.090,+2.960,+0.440,+0.483,+0.731,+9.841,+21.700,-1.300,-35.500
10809530,+9.190,+5.310,+0.910,+0.513,+0.754,+9.854,+22.700,-1.100,-35.500
10809540,+9.640,+5.950,+1.000,+0.548,+0.725,+9.818,+21.900,-1.500,-36.000
10809550,+10.200,+5.660,+0.970,+0.541,+0.751,+9.851,+21.900,+0.000,-38.800
10809560,+10.190,+5.320,+1.010,+0.514,+0.770,+9.810,+22.200,-1.600,-35.700
10809570,+9.320,+5.290,+1.010,+0.512,+0.792,+9.859,+22.400,-1.800,-35.700
10809580,+8.430,+5.960,+0.890,+0.512,+0.777,+9.936,+22.200,-1.800,-35.500
10809590,+7.520,+7.770,+0.780,+0.521,+0.812,+9.950,+22.400,-2.000,-35.200
10809600,+7.010,+8.970,+0.450,+0.516,+0.848,+9.955,+22.400,-1.800,-35.400
10809610,+7.070,+8.470,+0.110,+0.480,+0.878,+10.027,+22.200,-2.000,-35.400
10809620,+7.240,+5.520,-0.120,+0.436,+0.905,+10.009,+22.400,-2.500,-35.400
10809630,+7.700,+2.360,+0.050,+0.475,+0.929,+10.001,+22.700,-2.100,-35.400
10809640,+7.640,+0.230,-0.540,+0.456,+0.959,+9.985,+22.500,-2.300,-34.900
10809650,+7.560,-1.170,-0.630,+0.504,+0.970,+9.994,+22.900,-2.100,-35.500
10809660,+7.710,-2.280,-0.920,+0.475,+1.012,+10.012,+22.400,-2.500,-35.000
10809670,+8.250,-3.800,-1.050,+0.488,+1.011,+9.964,+22.400,-2.300,-35.400
10809680,+8.680,-6.820,-1.130,+0.484,+1.002,+9.941,+22.700,-2.300,-35.400
10809690,+8.750,-9.450,-1.310,+0.512,+1.011,+9.887,+22.500,-2.800,-35.500
10809700,+8.350,-10.380,-1.600,+0.518,+0.991,+9.876,+22.400,-2.500,-35.000
10809710,+6.720,-9.870,-1.760,+0.540,+1.034,+9.848,+22.400,-2.500,-35.700
10809720,+4.850,-9.420,-1.990,+0.564,+1.071,+9.841,+22.100,-2.900,-35.500
10809730,+4.130,-9.180,-1.990,+0.562,+1.060,+9.889,+21.600,-0.700,-39.000
10809740,+4.280,-8.890,-2.240,+0.553,+1.052,+9.886,+21.400,-2.900,-35.700
10809750,+4.880,-6.700,-1.980,+0.575,+0.999,+9.893,+20.800,-1.500,-39.300
10809760,+5.710,-4.050,-1.740,+0.590,+1.047,+9.846,+21.600,-3.100,-36.000
10809770,+6.070,-0.650,-1.640,+0.582,+1.091,+9.895,+21.600,-3.100,-35.700
10809780,+6.990,+2.760,-1.140,+0.579,+1.053,+9.905,+21.900,-3.100,-35.400
10809790,+7.400,+3.170,-1.240,+0.575,+1.182,+9.824,+21.200,-1.400,-39.200
10809800,+7.930,+1.630,-1.030,+0.540,+1.171,+9.772,+21.700,-3.300,-35.900
10809810,+9.150,+1.090,-0.910,+0.547,+1.179,+9.672,+21.400,-2.900,-35.900
10809820,+9.320,+2.990,-1.040,+0.565,+1.072,+9.624,+21.900,-3.300,-35.900
10809830,+8.770,+5.920,-0.710,+0.566,+1.015,+9.691,+21.900,-3.600,-35.500
10809840,+8.740,+10.320,-0.660,+0.575,+1.080,+9.757,+21.900,-3.800,-35.500
10809850,+8.430,+13.470,-0.610,+0.533,+1.106,+9.789,+21.700,-3.400,-35.700
10809860,+6.750,+13.270,-0.940,+0.490,+1.134,+9.734,+21.200,-2.000,-39.000
10809870,+3.820,+11.360,-1.130,+0.454,+1.040,+9.791,+21.900,-3.800,-35.500
10809880,+1.190,+9.340,-0.980,+0.431,+1.024,+9.755,+22.100,-3.600,-35.400
10809890,+0.830,+10.520,-1.080,+0.424,+1.097,+9.772,+22.100,-3.400,-35.400
10809900,+2.370,+11.230,-0.880,+0.412,+1.205,+9.878,+21.900,-2.000,-38.800
10809910,+4.760,+9.850,-1.140,+0.430,+1.273,+9.866,+22.200,-3.400,-35.200
10809920,+5.640,+10.980,-1.400,+0.409,+1.235,+9.791,+21.900,-2.300,-38.500
10809930,+4.720,+11.410,-1.620,+0.394,+1.065,+9.755,+21.900,-3.600,-35.400
10809940,+3.470,+12.020,-1.420,+0.356,+1.046,+9.697,+22.200,-3.800,-35.200
10809950,+1.700,+11.000,-1.110,+0.316,+1.086,+9.672,+21.700,-1.900,-38.700
10809960,-1.440,+11.680,+0.210,+0.287,+1.168,+9.592,+21.700,-2.500,-38.500
10809970,-7.510,+12.670,+1.630,+0.215,+1.203,+9.598,+22.500,-3.900,-35.000
10809980,-11.840,+15.410,+2.160,+0.325,+1.089,+9.618,+22.700,-3.300,-34.900
10809990,-11.500,+17.130,+0.610,+0.357,+1.034,+9.746,+22.900,-3.600,-34.900
10810000,-10.650,+15.780,+0.030,+0.237,+1.081,+9.719,+22.900,-3.400,-35.000
10810010,-7.640,+10.010,+0.150,+0.252,+1.071,+9.786,+23.300,-2.900,-35.000
10810020,-2.020,+2.410,-0.180,+0.227,+1.108,+9.849,+22.500,-2.000,-38.700
10810030,+1.220,-2.330,+0.080,+0.217,+1.114,+9.823,+23.000,-3.400,-35.200
10810040,+1.890,-4.440,-0.310,+0.196,+1.167,+9.814,+23.200,-2.900,-35.000
10810050,+1.990,-5.290,-0.140,+0.236,+1.172,+9.792,+22.900,-3.400,-35.000
10810060,+2.460,-5.270,-0.090,+0.218,+1.204,+9.699,+23.200,-3.900,-34.900
10810070,+2.240,-5.880,-0.180,+0.230,+1.210,+9.673,+22.500,-3.400,-34.900
10810080,+1.680,-7.380,+0.740,+0.225,+1.168,+9.639,+23.000,-3.600,-34.900
10810090,+0.980,-8.170,+0.740,+0.277,+1.081,+9.570,+22.700,-3.800,-34.500
10810100,+1.710,-12.180,+0.580,+0.256,+1.090,+9.620,+22.200,-2.100,-37.300
10810110,+2.760,-14.540,+0.410,+0.283,+1.104,+9.662,+22.900,-4.300,-34.400
10810120,+4.310,-15.230,+0.720,+0.266,+1.180,+9.681,+21.900,-2.100,-38.500
10810130,+5.320,-13.850,+0.740,+0.301,+1.202,+9.738,+22.200,-3.800,-35.400
10810140,+6.080,-13.580,+0.620,+0.325,+1.246,+9.807,+22.200,-4.100,-34.700
10810150,+6.820,-14.320,+0.540,+0.348,+1.293,+9.927,+21.900,-4.100,-35.400
10810160,+7.630,-15.190,+0.410,+0.383,+1.312,+9.929,+21.400,-2.400,-38.800
10810170,+7.780,-16.170,+0.420,+0.437,+1.235,+9.841,+21.600,-4.400,-35.700
10810180,+7.380,-16.660,+0.490,+0.419,+1.187,+9.814,+21.400,-4.600,-35.400
10810190,+6.430,-16.950,+0.640,+0.420,+1.232,+9.747,+21.400,-4.300,-35.500
10810200,+5.250,-16.620,+0.700,+0.464,+1.293,+9.713,+21.600,-4.300,-35.500
10810210,+4.950,-15.700,+0.650,+0.497,+1.314,+9.697,+20.800,-4.600,-35.700
10810220,+4.200,-14.200,+0.770,+0.542,+1.287,+9.680,+20.600,-4.500,-35.900
10810230,+4.030,-13.890,+0.710,+0.562,+1.278,+9.672,+21.100,-4.400,-35.900
10810240,+3.600,-14.090,+0.720,+0.589,+1.227,+9.578,+20.800,-4.800,-35.900
10810250,+3.690,-14.020,+0.150,+0.611,+1.159,+9.513,+20.300,-4.500,-36.000
10810260,+4.810,-14.710,+0.000,+0.605,+1.175,+9.532,+20.600,-4.700,-36.200
10810270,+6.270,-15.130,+0.010,+0.631,+1.239,+9.596,+20.300,-4.300,-36.200
10810280,+6.470,-15.950,-0.240,+0.650,+1.305,+9.657,+20.000,-3.400,-39.700
10810290,+4.900,-17.560,-0.290,+0.697,+1.351,+9.614,+19.800,-3.100,-39.800
10810300,+2.860,-19.520,-0.660,+0.772,+1.317,+9.573,+20.000,-2.900,-39.300
10810310,+1.700,-22.350,-1.250,+0.808,+1.307,+9.625,+20.100,-4.800,-36.500
10810320,+0.890,-25.410,-1.210,+0.784,+1.344,+9.607,+19.800,-4.800,-36.700
10810330,+1.120,-26.120,-1.070,+0.854,+1.332,+9.630,+19.600,-4.700,-36.200
10810340,+2.730,-25.420,-0.820,+0.851,+1.332,+9.562,+19.800,-4.500,-36.700
10810350,+4.310,-23.640,-0.850,+0.893,+1.353,+9.448,+19.200,-4.500,-37.200
10810360,+4.340,-19.580,-0.500,+0.972,+1.256,+9.484,+19.000,-4.300,-37.500
10810370,+4.740,-15.520,+0.050,+1.015,+1.207,+9.572,+17.900,-3.100,-40.800
10810380,+4.730,-12.260,+0.210,+1.045,+1.273,+9.651,+18.200,-2.700,-41.000
10810390,+3.890,-11.320,+0.410,+1.096,+1.307,+9.757,+18.800,-5.000,-37.700
10810400,+3.420,-10.980,+0.650,+1.082,+1.320,+9.719,+18.300,-4.500,-37.800
10810410,+3.030,-10.230,+0.790,+1.137,+1.336,+9.807,+18.500,-5.000,-37.300
10810420,+2.020,-10.240,+0.790,+1.113,+1.282,+9.794,+17.900,-3.200,-41.000
10810430,+0.640,-9.380,+0.730,+1.151,+1.282,+9.709,+18.300,-5.200,-37.300
10810440,-0.470,-7.710,+0.650,+1.191,+1.301,+9.693,+18.000,-5.200,-37.300
10810450,+0.420,-7.430,+0.370,+1.175,+1.372,+9.759,+17.900,-4.800,-37.500
10810460,+1.460,-8.080,+0.250,+1.141,+1.402,+9.755,+17.500,-3.400,-40.800
10810470,+1.650,-8.480,+0.360,+1.173,+1.358,+9.690,+17.900,-5.300,-37.500
10810480,+0.880,-8.620,+0.420,+1.203,+1.325,+9.632,+18.000,-5.300,-37.500
10810490,+0.080,-9.200,+0.420,+1.243,+1.286,+9.596,+17.900,-5.300,-37.500
10810500,+0.230,-9.020,+0.290,+1.246,+1.329,+9.635,+17.900,-5.000,-37.700
10810510,+1.560,-9.090,-0.080,+1.266,+1.378,+9.716,+17.400,-3.900,-41.100
10810520,+2.010,-9.610,-0.020,+1.271,+1.402,+9.752,+17.500,-5.600,-37.800
10810530,+1.920,-10.890,+0.190,+1.277,+1.467,+9.759,+17.400,-5.000,-37.700
10810540,+1.380,-12.110,+0.110,+1.298,+1.464,+9.746,+17.400,-5.300,-38.000
10810550,+1.820,-14.110,-0.020,+1.299,+1.413,+9.703,+17.400,-5.500,-37.700
10810560,+2.000,-16.610,-0.250,+1.332,+1.394,+9.689,+17.400,-5.600,-37.800
10810570,+1.820,-18.240,-0.200,+1.361,+1.388,+9.650,+17.100,-5.300,-37.800
10810580,+1.130,-18.360,+0.310,+1.392,+1.420,+9.649,+17.200,-6.000,-37.500
10810590,+0.110,-17.370,+0.540,+1.402,+1.447,+9.662,+16.900,-5.300,-38.000
10810600,-0.100,-16.140,+0.720,+1.433,+1.456,+9.672,+16.400,-5.600,-38.000
10810610,+1.200,-15.640,+0.820,+1.464,+1.452,+9.616,+16.400,-5.800,-38.300
10810620,+2.190,-14.120,+0.770,+1.504,+1.408,+9.622,+16.400,-5.500,-38.000
10810630,+2.430,-12.500,+0.520,+1.556,+1.366,+9.551,+15.800,-3.700,-41.000
10810640,+1.920,-13.000,+0.130,+1.598,+1.352,+9.652,+16.600,-5.600,-38.300
10810650,+1.390,-16.090,-0.050,+1.588,+1.361,+9.746,+16.400,-5.600,-38.300
10810660,+0.530,-20.050,+0.460,+1.609,+1.413,+9.836,+16.300,-5.500,-38.000
10810670,+0.240,-23.460,+0.790,+1.654,+1.470,+9.858,+16.300,-5.500,-38.000
10810680,-0.680,-26.190,+0.890,+1.746,+1.466,+9.788,+15.600,-5.500,-38.400
10810690,-0.470,-28.370,+0.790,+1.771,+1.479,+9.744,+15.600,-5.400,-38.600
10810700,+0.270,-29.870,+1.190,+1.824,+1.507,+9.672,+15.300,-5.700,-38.700
10810710,+1.370,-30.280,+1.360,+1.840,+1.482,+9.647,+14.500,-5.500,-39.100
10810720,+1.260,-29.590,+1.350,+1.894,+1.467,+9.576,+14.600,-5.200,-38.600
10810730,+0.690,-29.550,+0.840,+1.957,+1.427,+9.611,+14.300,-5.200,-39.200
10810740,+0.100,-31.610,+0.950,+1.935,+1.381,+9.587,+14.200,-5.900,-39.600
10810750,+0.910,-33.540,+2.470,+2.027,+1.413,+9.599,+14.000,-6.000,-39.400
10810760,+0.600,-34.100,+2.230,+2.144,+1.478,+9.539,+13.500,-5.200,-39.700
10810770,+0.700,-35.020,+1.900,+2.169,+1.456,+9.646,+13.200,-5.900,-39.900
10810780,+0.700,-36.120,+1.840,+2.252,+1.479,+9.634,+12.600,-4.100,-43.500
10810790,-0.040,-37.110,+1.740,+2.282,+1.472,+9.545,+12.400,-5.700,-39.900
10810800,-1.120,-38.420,+1.870,+2.322,+1.451,+9.546,+12.200,-5.500,-40.400
10810810,-1.100,-37.590,+2.010,+2.401,+1.453,+9.482,+12.200,-5.700,-40.100
10810820,-0.380,-35.340,+2.320,+2.411,+1.445,+9.400,+11.000,-4.200,-43.500
10810830,-0.040,-32.650,+2.320,+2.520,+1.449,+9.350,+11.600,-5.500,-40.200
10810840,+0.220,-30.380,+2.150,+2.555,+1.445,+9.298,+10.900,-5.200,-40.700
10810850,+0.320,-30.090,+1.760,+2.660,+1.406,+9.358,+10.900,-5.200,-40.500
10810860,+0.080,-32.240,+1.890,+2.654,+1.446,+9.351,+10.600,-5.900,-40.700
10810870,-0.850,-34.970,+2.390,+2.709,+1.475,+9.358,+9.800,-4.200,-44.200
10810880,-1.950,-35.480,+2.410,+2.784,+1.499,+9.367,+9.600,-4.100,-44.700
10810890,-2.900,-34.680,+2.300,+2.839,+1.524,+9.403,+9.300,-5.900,-41.000
10810900,-2.430,-34.080,+1.820,+2.904,+1.506,+9.426,+9.700,-5.700,-41.200
10810910,-1.200,-33.630,+1.440,+2.978,+1.465,+9.418,+9.200,-4.700,-41.500
10810920,-0.330,-34.930,+1.110,+3.003,+1.381,+9.333,+9.000,-5.400,-41.500
10810930,+0.300,-36.090,+1.230,+3.068,+1.378,+9.333,+8.800,-5.700,-41.400
10810940,-0.230,-36.770,+1.600,+3.101,+1.434,+9.285,+8.600,-5.500,-42.000
10810950,-1.500,-37.320,+1.660,+3.189,+1.388,+9.254,+7.500,-4.400,-44.900
10810960,-2.070,-37.890,+1.370,+3.290,+1.366,+9.296,+7.900,-5.400,-41.600
10810970,-1.060,-39.140,+1.110,+3.331,+1.383,+9.349,+7.700,-5.500,-41.800
10810980,+0.780,-41.830,+0.450,+3.409,+1.427,+9.390,+7.500,-5.900,-41.800
10810990,+1.220,-43.650,+0.530,+3.476,+1.412,+9.401,+6.900,-5.700,-41.900
10811000,-0.120,-44.820,+0.690,+3.551,+1.399,+9.361,+6.400,-6.200,-42.100
10811010,-1.890,-44.360,+0.550,+3.640,+1.359,+9.236,+5.600,-4.600,-45.400
10811020,-2.800,-42.550,+0.940,+3.677,+1.357,+9.227,+4.900,-4.400,-45.600
10811030,-2.830,-41.070,+1.050,+3.748,+1.391,+9.203,+5.100,-5.900,-42.400
10811040,-2.640,-39.720,+0.750,+3.788,+1.438,+9.131,+5.100,-5.500,-42.400
10811050,-3.030,-37.940,+0.510,+3.831,+1.428,+9.071,+4.600,-5.900,-42.300
10811060,-3.720,-35.900,+0.010,+3.909,+1.405,+9.039,+3.600,-4.600,-45.900
10811070,-4.630,-34.540,-0.120,+3.961,+1.398,+8.986,+4.100,-5.700,-42.600
10811080,-5.640,-32.900,-0.060,+4.024,+1.387,+8.946,+3.800,-6.200,-42.100
10811090,-7.150,-31.450,-1.560,+4.186,+1.484,+8.897,+3.100,-5.700,-42.600
10811100,-11.710,-32.810,-5.060,+4.182,+1.411,+8.754,+3.000,-5.900,-42.800
10811110,-11.860,-28.850,-1.310,+4.001,+1.226,+9.042,+2.500,-6.000,-42.900
10811120,-10.620,-23.860,+0.710,+4.168,+1.309,+9.041,+2.800,-5.400,-43.100
10811130,-10.390,-20.070,+1.150,+4.225,+1.438,+9.041,+2.200,-5.100,-42.900
10811140,-15.220,-20.560,+0.330,+4.353,+1.552,+8.760,+2.300,-5.100,-43.100
10811150,-23.230,-20.060,+0.670,+4.288,+1.350,+8.847,+1.400,-3.300,-46.400
10811160,-25.500,-15.920,+2.110,+4.298,+1.179,+8.977,+1.500,-5.200,-43.300
10811170,-24.470,-14.410,+2.810,+4.297,+1.168,+8.930,+1.500,-4.400,-43.300
10811180,-23.750,-13.110,+2.770,+4.337,+1.120,+8.793,+1.700,-4.600,-43.100
10811190,-23.070,-9.360,+2.970,+4.315,+1.033,+8.811,+1.500,-4.400,-43.400
10811200,-21.490,-6.640,+4.090,+4.304,+1.025,+8.941,+1.400,-4.100,-43.300
10811210,-20.780,-5.040,+4.750,+4.388,+1.045,+8.940,+1.200,-4.100,-43.800
10811220,-21.770,-5.220,+3.700,+4.485,+1.043,+8.934,+0.600,-2.300,-46.700
10811230,-22.630,-6.880,+2.810,+4.449,+0.894,+8.956,+0.700,-2.300,-46.900
10811240,-20.640,-7.060,+3.730,+4.388,+0.772,+8.955,+0.700,-3.700,-43.600
10811250,-20.940,-8.890,+4.090,+4.427,+0.810,+8.776,+1.200,-3.600,-43.600
10811260,-23.320,-11.460,+4.290,+4.454,+0.829,+8.777,+1.200,-2.700,-43.800
10811270,-23.790,-12.670,+5.510,+4.450,+0.853,+8.846,+0.700,-2.900,-43.800
10811280,-24.990,-10.910,+5.920,+4.573,+0.894,+8.839,+0.700,-1.900,-43.900
10811290,-27.850,-8.160,+7.210,+4.572,+0.793,+8.851,+0.700,-2.700,-43.800
10811300,-28.390,-6.180,+8.330,+4.512,+0.693,+8.964,+0.700,-2.100,-43.800
10811310,-26.120,-5.050,+7.280,+4.575,+0.652,+8.876,+0.200,-0.200,-47.200
10811320,-22.960,-4.390,+6.320,+4.539,+0.609,+8.935,+0.600,-1.400,-43.800
10811330,-17.670,-1.930,+5.920,+4.517,+0.603,+8.882,+0.600,-1.100,-43.900
10811340,-10.960,+1.170,+4.690,+4.483,+0.638,+8.781,+0.400,-1.100,-44.200
10811350,-4.790,+3.270,+3.480,+4.487,+0.599,+8.714,+0.000,-1.400,-43.900
10811360,-1.700,+4.390,+3.410,+4.468,+0.462,+8.656,+0.400,-1.300,-44.200
10811370,-0.640,+4.250,+3.290,+4.498,+0.462,+8.641,+0.300,-1.400,-43.900
10811380,-0.450,+3.190,+3.000,+4.484,+0.559,+8.686,+0.000,+0.300,-47.400
10811390,-0.540,+2.320,+2.850,+4.524,+0.529,+8.719,+0.300,-1.400,-43.800
10811400,+0.660,+1.880,+2.080,+4.552,+0.515,+8.827,+0.700,-1.600,-43.900
10811410,+1.740,+0.990,+1.370,+4.568,+0.551,+8.771,+0.000,-1.300,-44.100
10811420,+1.920,+1.000,+1.220,+4.576,+0.531,+8.703,+0.000,+0.000,-47.400
10811430,+1.500,+1.010,+0.970,+4.529,+0.449,+8.634,+0.200,-0.900,-44.100
10811440,+1.810,-0.050,+0.700,+4.518,+0.436,+8.637,+0.400,-1.300,-43.900
10811450,+1.770,-0.910,+0.510,+4.556,+0.490,+8.710,+0.700,-1.100,-44.200
10811460,+1.580,-0.860,+0.480,+4.596,+0.541,+8.833,+0.900,-1.800,-43.900
10811470,+2.990,-0.820,-0.370,+4.599,+0.490,+8.946,+0.300,-2.100,-43.900
10811480,+4.900,-2.060,-1.260,+4.584,+0.479,+8.878,+0.900,-1.900,-43.800
10811490,+5.430,-2.880,-1.760,+4.549,+0.466,+8.762,+0.600,-1.800,-44.100
10811500,+3.940,-3.430,-1.850,+4.529,+0.458,+8.675,+0.600,-1.800,-44.100
10811510,+1.800,-4.550,-1.320,+4.541,+0.483,+8.687,+0.400,-1.600,-43.900
10811520,-2.100,-5.870,-0.150,+4.567,+0.499,+8.693,+0.200,-1.300,-43.900
10811530,-5.410,-6.890,+1.010,+4.586,+0.465,+8.772,+0.200,-1.300,-44.200
10811540,-8.260,-6.110,+1.870,+4.617,+0.455,+8.768,+0.000,-1.400,-43.800
10811550,-10.560,-5.460,+2.690,+4.628,+0.470,+8.764,+0.300,-0.900,-44.100
10811560,-12.130,-4.390,+3.150,+4.631,+0.518,+8.836,-0.100,-1.300,-44.900
10811570,-13.840,-3.850,+3.740,+4.632,+0.505,+8.821,+0.000,-1.300,-43.900
10811580,-15.560,-2.280,+3.920,+4.636,+0.472,+8.738,+0.300,-1.400,-45.200
10811590,-16.010,-1.180,+3.650,+4.590,+0.391,+8.726,+0.400,-0.100,-44.100
10811600,-16.620,-0.740,+3.590,+4.558,+0.342,+8.708,+0.300,-0.900,-44.200
10811610,-18.600,-0.460,+4.410,+4.600,+0.279,+8.662,+0.300,-1.100,-43.600
10811620,-28.810,+2.140,+7.370,+4.688,+0.337,+8.702,+0.300,-0.100,-44.100
10811630,-42.930,+6.480,+10.110,+4.680,+0.156,+8.790,+0.200,+0.200,-44.200
10811640,-51.030,+8.190,+11.790,+4.539,+0.057,+8.958,+0.000,+0.200,-44.200
10811650,-55.760,+10.150,+13.310,+4.634,+0.016,+8.825,+0.200,+0.800,-44.200
10811660,-56.580,+13.610,+10.930,+4.683,-0.026,+8.739,+0.400,+0.500,-44.200
10811670,-54.540,+15.010,+9.130,+4.499,-0.127,+8.758,+0.400,+1.600,-44.200
10811680,-47.450,+15.580,+8.710,+4.360,-0.187,+8.782,+0.600,+2.400,-44.200
10811690,-35.480,+17.240,+7.730,+4.269,-0.176,+8.738,+0.600,+3.300,-44.200
10811700,-22.970,+16.800,+5.960,+4.266,-0.147,+8.636,+1.100,+3.100,-43.900
10811710,-10.690,+17.420,+3.400,+4.230,-0.186,+8.642,+0.400,+3.100,-44.200
10811720,-0.100,+15.320,+0.870,+4.218,-0.286,+8.689,+1.200,+2.900,-43.900
10811730,+6.910,+12.150,-1.720,+4.277,-0.286,+8.658,+1.200,+2.800,-44.200
10811740,+9.740,+10.300,-3.170,+4.288,-0.294,+8.655,+1.500,+2.900,-44.200
10811750,+9.130,+9.350,-2.960,+4.294,-0.350,+8.761,+1.400,+3.700,-43.900
10811760,+4.580,+10.070,-0.120,+4.373,-0.316,+8.955,+1.400,+3.700,-43.900
10811770,-3.760,+11.330,+3.130,+4.438,-0.303,+9.135,+1.200,+2.600,-44.100
10811780,-8.040,+13.020,+4.710,+4.412,-0.371,+9.121,+1.700,+2.900,-44.200
10811790,-9.330,+16.640,+5.010,+4.314,-0.355,+9.014,+1.900,+3.100,-44.100
10811800,-7.630,+18.720,+4.870,+4.280,-0.346,+8.941,+1.400,+4.800,-47.600
10811810,-2.580,+19.070,+3.850,+4.205,-0.319,+8.914,+2.000,+3.100,-44.200
10811820,+3.300,+18.760,+2.730,+4.138,-0.243,+8.915,+2.500,+2.800,-44.100
10811830,+7.550,+19.160,+1.960,+4.127,-0.252,+8.884,+1.900,+2.800,-43.900
10811840,+10.020,+20.370,+1.130,+4.124,-0.305,+8.980,+2.700,+3.100,-44.100
10811850,+12.220,+19.890,+0.680,+4.091,-0.388,+9.068,+3.000,+3.700,-44.200
10811860,+12.820,+19.750,+0.330,+4.082,-0.380,+9.052,+3.100,+3.300,-43.900
10811870,+10.930,+21.520,+1.260,+4.053,-0.339,+9.020,+2.800,+4.200,-47.600
10811880,+6.980,+24.400,+3.140,+4.039,-0.302,+9.062,+2.800,+4.300,-47.400
10811890,+1.380,+27.100,+6.110,+3.908,-0.247,+9.073,+3.600,+2.400,-43.800
10811900,-2.080,+28.840,+8.400,+3.897,-0.305,+9.076,+3.800,+2.900,-44.100
10811910,-3.500,+30.850,+8.570,+3.882,-0.292,+9.022,+4.300,+2.900,-43.800
10811920,-5.090,+31.780,+8.350,+3.839,-0.241,+9.088,+4.800,+2.900,-43.800
10811930,-5.540,+34.080,+7.770,+3.808,-0.234,+9.134,+4.100,+4.200,-46.900
10811940,-3.520,+37.500,+6.470,+3.750,-0.225,+9.244,+4.400,+4.700,-46.700
10811950,-1.030,+38.340,+6.340,+3.714,-0.125,+9.244,+5.400,+3.400,-43.600
10811960,-0.360,+43.040,+6.970,+3.648,-0.203,+9.189,+5.700,+3.300,-43.800
10811970,-3.250,+47.390,+8.560,+3.546,-0.289,+9.343,+6.000,+3.400,-43.400
10811980,-8.190,+47.370,+11.360,+3.477,-0.342,+9.396,+6.400,+3.400,-43.300
10811990,-12.320,+48.170,+12.300,+3.421,-0.436,+9.380,+6.400,+4.000,-46.600
10812000,-13.850,+48.470,+12.280,+3.342,-0.510,+9.339,+7.200,+2.900,-42.900
10812010,-14.300,+48.440,+11.490,+3.252,-0.531,+9.350,+7.700,+2.800,-43.900
10812020,-14.990,+49.610,+11.010,+3.195,-0.546,+9.437,+8.100,+4.100,-43.100
10812030,-15.190,+49.030,+11.070,+3.034,-0.531,+9.499,+8.500,+4.700,-46.500
10812040,-16.040,+48.530,+12.620,+2.915,-0.466,+9.493,+9.100,+3.400,-43.000
10812050,-16.300,+48.570,+13.910,+2.864,-0.577,+9.433,+9.600,+4.100,-42.900
10812060,-14.650,+48.110,+14.190,+2.837,-0.684,+9.504,+9.900,+3.300,-42.700
10812070,-12.100,+45.680,+13.140,+2.759,-0.694,+9.575,+10.200,+3.900,-42.400
10812080,-10.010,+42.610,+11.840,+2.674,-0.664,+9.586,+10.600,+3.700,-42.000
10812090,-9.640,+39.150,+10.370,+2.646,-0.643,+9.543,+10.600,+5.200,-45.700
10812100,-11.820,+33.980,+9.880,+2.544,-0.735,+9.644,+11.400,+4.400,-42.000
10812110,-12.890,+30.040,+10.160,+2.444,-0.795,+9.727,+11.200,+5.600,-45.200
10812120,-15.130,+28.490,+11.010,+2.511,-0.768,+9.634,+12.200,+4.900,-41.900
10812130,-19.640,+27.380,+11.190,+2.428,-0.897,+9.655,+12.100,+4.400,-41.500
10812140,-20.800,+24.820,+11.180,+2.353,-0.966,+9.713,+12.500,+4.700,-41.400
10812150,-19.650,+23.500,+11.180,+2.341,-0.883,+9.805,+12.300,+5.900,-44.300
10812160,-17.890,+26.010,+10.450,+2.257,-0.862,+9.760,+12.500,+5.400,-41.200
10812170,-14.830,+27.840,+9.560,+2.201,-0.868,+9.774,+13.200,+5.400,-41.400
10812180,-11.400,+30.610,+8.820,+2.189,-0.847,+9.734,+13.200,+5.400,-41.000
10812190,-9.790,+33.800,+7.580,+2.118,-0.912,+9.764,+13.200,+5.100,-41.000
10812200,-7.890,+33.590,+7.030,+2.032,-0.952,+9.790,+14.000,+4.900,-40.900
10812210,-6.580,+34.660,+5.930,+2.016,-1.001,+9.734,+14.000,+5.100,-40.900
10812220,-5.520,+35.170,+5.210,+1.957,-1.050,+9.796,+14.100,+6.900,-44.200
10812230,-6.010,+33.580,+4.700,+1.862,-1.055,+9.750,+14.100,+6.900,-43.900
10812240,-7.200,+32.640,+4.710,+1.829,-1.056,+9.749,+14.800,+5.400,-40.200
10812250,-8.620,+33.540,+4.660,+1.767,-1.066,+9.645,+14.700,+6.500,-43.700
10812260,-9.260,+34.170,+4.820,+1.704,-1.127,+9.666,+15.600,+5.100,-40.100
10812270,-9.050,+33.350,+4.930,+1.621,-1.136,+9.685,+15.800,+5.600,-40.100
10812280,-8.890,+33.830,+4.940,+1.602,-1.169,+9.681,+16.100,+5.700,-39.700
10812290,-8.200,+35.820,+4.910,+1.533,-1.159,+9.725,+16.400,+5.400,-39.200
10812300,-7.880,+41.180,+4.800,+1.441,-1.159,+9.783,+16.700,+6.500,-39.500
10812310,-6.450,+43.790,+4.810,+1.416,-1.160,+9.865,+17.100,+6.400,-39.500
10812320,-4.730,+50.530,+4.800,+1.314,-1.127,+9.771,+17.400,+6.400,-39.500
10812330,-3.760,+55.610,+5.260,+1.194,-1.189,+9.782,+18.000,+6.200,-38.800
10812340,-3.750,+57.940,+5.490,+1.117,-1.209,+9.751,+18.000,+7.200,-42.500
10812350,-4.570,+59.240,+5.670,+1.040,-1.203,+9.779,+18.800,+5.700,-38.700
10812360,-4.980,+59.930,+5.910,+0.954,-1.209,+9.797,+19.300,+5.500,-38.300
10812370,-4.440,+60.880,+6.590,+0.823,-1.209,+9.809,+19.500,+5.600,-38.500
10812380,-3.170,+61.770,+7.290,+0.730,-1.232,+9.864,+20.100,+5.600,-38.000
10812390,-0.270,+61.450,+7.950,+0.636,-1.286,+9.816,+20.800,+5.900,-37.500
10812400,+2.080,+64.880,+8.230,+0.549,-1.235,+9.772,+20.800,+6.800,-41.000
10812410,+3.260,+68.250,+8.680,+0.413,-1.183,+9.792,+21.600,+6.200,-37.000
10812420,+5.960,+68.580,+9.120,+0.313,-1.184,+9.903,+21.700,+6.300,-39.500
10812430,+8.110,+67.260,+9.260,+0.144,-1.164,+9.955,+22.900,+6.000,-36.200
10812440,+8.980,+66.020,+8.850,+0.077,-1.163,+9.930,+23.300,+5.900,-35.900
10812450,+9.190,+64.660,+7.490,-0.072,-1.200,+9.939,+23.700,+6.000,-35.400
10812460,+10.190,+60.880,+6.860,-0.140,-1.152,+9.914,+24.300,+5.500,-35.100
10812470,+10.890,+54.900,+7.220,-0.237,-1.142,+9.837,+24.600,+5.200,-34.800
10812480,+10.720,+47.210,+7.730,-0.301,-1.063,+9.801,+24.900,+4.900,-34.100
10812490,+11.620,+42.160,+8.290,-0.298,-0.915,+9.818,+25.100,+5.400,-34.500
10812500,+16.490,+37.390,+9.790,-0.369,-0.796,+9.878,+25.400,+5.500,-37.400
10812510,+23.810,+35.470,+10.470,-0.547,-0.810,+9.844,+25.800,+5.400,-33.800
10812520,+28.610,+36.210,+10.350,-0.640,-0.935,+9.771,+26.700,+4.500,-33.600
10812530,+29.550,+37.870,+9.600,-0.724,-0.967,+9.823,+26.400,+4.400,-33.500
10812540,+28.990,+37.840,+9.120,-0.793,-0.969,+9.891,+26.700,+3.900,-33.100
10812550,+27.290,+36.660,+8.350,-0.826,-0.950,+9.898,+27.000,+3.500,-33.100
10812560,+24.850,+34.670,+7.340,-0.889,-0.938,+10.004,+27.000,+3.900,-33.000
10812570,+22.350,+33.140,+6.060,-0.952,-0.883,+10.072,+27.700,+4.000,-32.600
10812580,+21.090,+31.570,+5.320,-1.034,-0.815,+10.068,+27.200,+4.200,-36.000
10812590,+20.430,+30.920,+5.300,-1.101,-0.791,+10.003,+27.800,+3.500,-32.500
10812600,+19.540,+32.500,+4.880,-1.142,-0.751,+9.884,+28.300,+3.200,-32.000
10812610,+18.990,+34.770,+4.580,-1.189,-0.682,+9.881,+28.300,+3.200,-31.800
10812620,+20.340,+39.550,+5.130,-1.296,-0.583,+9.855,+28.300,+3.400,-34.600
10812630,+21.630,+47.500,+4.830,-1.416,-0.558,+9.762,+28.500,+3.100,-34.800
10812640,+20.520,+51.920,+4.530,-1.508,-0.561,+9.803,+29.100,+1.800,-30.700
10812650,+20.180,+52.030,+4.560,-1.598,-0.512,+9.814,+29.500,+2.300,-30.700
10812660,+20.240,+52.230,+4.350,-1.648,-0.464,+9.767,+29.800,+2.500,-30.300
10812670,+19.510,+52.070,+4.230,-1.752,-0.419,+9.708,+30.300,+2.100,-30.300
10812680,+17.630,+50.590,+3.890,-1.816,-0.396,+9.694,+30.400,+1.800,-29.500
10812690,+14.980,+49.680,+3.480,-1.900,-0.359,+9.687,+30.700,+2.100,-32.500
10812700,+12.200,+47.130,+2.900,-1.966,-0.370,+9.654,+31.100,+1.000,-28.800
10812710,+10.490,+44.660,+2.200,-2.030,-0.353,+9.637,+31.600,+0.800,-28.500
10812720,+9.440,+42.420,+1.450,-2.144,-0.292,+9.613,+31.900,+0.600,-28.100
10812730,+9.550,+40.300,+1.510,-2.211,-0.240,+9.605,+31.300,+0.600,-28.000
10812740,+11.330,+40.190,+1.900,-2.256,-0.229,+9.641,+31.500,+0.500,-27.700
10812750,+13.080,+39.330,+2.680,-2.334,-0.214,+9.623,+32.400,+1.300,-27.600
10812760,+13.470,+37.680,+2.910,-2.341,-0.195,+9.554,+32.400,+2.000,-30.400
10812770,+16.290,+35.140,+3.570,-2.399,-0.133,+9.531,+33.500,+0.800,-27.100
10812780,+18.810,+31.280,+4.500,-2.406,-0.046,+9.512,+33.000,+2.000,-29.900
10812790,+19.450,+29.210,+4.850,-2.460,-0.018,+9.507,+33.700,+0.500,-26.500
10812800,+18.970,+27.920,+5.030,-2.524,-0.064,+9.438,+33.100,+0.200,-27.500
10812810,+17.720,+27.140,+4.510,-2.582,-0.050,+9.518,+33.200,+1.300,-29.300
10812820,+16.340,+24.580,+3.530,-2.630,+0.018,+9.537,+33.700,-0.200,-25.600
10812830,+16.210,+21.610,+2.740,-2.686,-0.006,+9.618,+33.900,-0.700,-25.000
10812840,+17.740,+17.890,+2.260,-2.738,+0.062,+9.610,+34.000,-0.400,-25.500
10812850,+18.700,+14.150,+2.450,-2.762,+0.178,+9.521,+34.000,-0.600,-25.100
10812860,+21.770,+10.900,+2.240,-2.742,+0.201,+9.556,+34.300,-0.900,-24.800
10812870,+24.380,+8.210,+2.990,-2.805,+0.250,+9.468,+34.200,-0.700,-24.800
10812880,+22.940,+7.370,+2.890,-2.794,+0.273,+9.359,+34.500,-1.100,-24.600
10812890,+20.580,+6.500,+2.460,-2.774,+0.271,+9.369,+34.500,-1.600,-24.300
10812900,+18.930,+7.950,+2.590,-2.845,+0.258,+9.370,+33.700,-1.400,-25.600
10812910,+18.670,+9.170,+2.890,-2.859,+0.306,+9.443,+34.300,-1.200,-24.600
10812920,+19.010,+9.630,+3.040,-2.841,+0.373,+9.462,+34.500,-1.400,-24.500
10812930,+20.490,+10.080,+3.350,-2.882,+0.368,+9.362,+34.700,-1.700,-24.200
10812940,+21.250,+11.180,+3.680,-2.872,+0.421,+9.337,+34.700,-1.200,-24.600
10812950,+21.370,+11.170,+3.320,-2.869,+0.423,+9.408,+34.500,-0.700,-27.600
10812960,+21.300,+9.110,+3.540,-2.886,+0.510,+9.405,+34.800,-1.700,-24.300
10812970,+20.590,+5.840,+3.190,-2.881,+0.574,+9.421,+34.800,-1.700,-24.200
10812980,+22.560,+5.820,+3.740,-2.956,+0.566,+9.492,+34.800,-1.900,-24.200
10812990,+24.220,+6.720,+4.610,-2.995,+0.663,+9.398,+34.800,-2.400,-24.000
10813000,+23.120,+6.580,+4.560,-3.012,+0.697,+9.348,+34.800,-2.400,-24.000
10813010,+24.890,+10.470,+5.370,-2.983,+0.700,+9.439,+34.700,-2.100,-27.100
10813020,+29.960,+14.820,+6.850,-3.012,+0.819,+9.361,+35.000,-3.000,-23.800
10813030,+30.540,+14.290,+6.230,-3.042,+0.846,+9.365,+35.200,-3.000,-23.700
10813040,+30.070,+14.660,+5.800,-3.028,+0.781,+9.332,+35.300,-3.100,-23.200
10813050,+29.150,+14.800,+5.000,-3.079,+0.790,+9.344,+35.500,-3.000,-23.300
10813060,+27.700,+14.000,+4.590,-3.127,+0.821,+9.390,+35.000,-2.700,-26.300
10813070,+28.720,+14.620,+4.450,-3.050,+0.940,+9.386,+35.500,-3.300,-22.800
10813080,+32.240,+15.640,+3.840,-3.059,+1.077,+9.514,+35.800,-3.500,-22.800
10813090,+36.690,+15.880,+4.730,-3.232,+1.089,+9.509,+35.500,-4.100,-22.300
10813100,+38.660,+11.510,+6.280,-3.201,+1.255,+9.438,+35.300,-3.700,-25.800
10813110,+39.320,+6.900,+5.790,-3.177,+1.339,+9.504,+35.600,-4.800,-22.200
10813120,+38.550,+2.970,+5.320,-3.243,+1.285,+9.358,+35.600,-5.100,-22.200
10813130,+42.420,+3.370,+6.170,-3.181,+1.283,+9.176,+35.500,-5.500,-21.800
10813140,+47.080,+4.950,+6.710,-3.210,+1.493,+9.057,+35.600,-4.800,-22.200
10813150,+47.300,+5.040,+7.590,-3.291,+1.469,+9.090,+35.300,-6.100,-21.800
10813160,+43.670,+6.330,+8.310,-3.239,+1.452,+9.073,+35.500,-6.100,-21.700
10813170,+38.060,+5.950,+6.450,-3.211,+1.517,+9.090,+35.300,-5.400,-24.800
10813180,+32.050,+2.860,+4.730,-3.224,+1.585,+9.130,+35.600,-6.600,-21.500
10813190,+29.120,+0.350,+3.880,-3.138,+1.708,+9.198,+35.600,-6.800,-21.300
10813200,+31.670,-0.500,+4.530,-3.198,+1.930,+9.251,+35.600,-7.300,-20.800
10813210,+35.230,-4.170,+6.730,-3.242,+2.091,+9.183,+35.800,-7.300,-21.300
10813220,+37.250,-6.020,+7.960,-3.118,+2.209,+9.049,+35.300,-7.400,-21.200
10813230,+37.220,-9.300,+8.880,-3.191,+2.108,+9.026,+35.600,-7.400,-21.200
10813240,+39.390,-10.470,+9.410,-3.106,+1.832,+9.153,+35.600,-7.800,-21.200
10813250,+42.810,-6.470,+9.390,-3.107,+1.918,+9.066,+35.200,-7.900,-21.200
10813260,+39.470,-10.020,+7.700,-3.124,+1.985,+8.951,+35.300,-8.000,-24.300
10813270,+33.720,-10.740,+5.470,-3.067,+2.003,+8.877,+35.000,-7.800,-24.200
10813280,+28.020,-11.200,+4.990,-3.197,+2.103,+8.972,+35.000,-7.800,-24.200
10813290,+22.760,-12.050,+4.650,-3.143,+2.225,+8.997,+34.700,-9.200,-22.200
10813300,+18.280,-11.810,+3.790,-3.152,+2.321,+8.961,+35.300,-9.100,-21.000
10813310,+13.960,-10.620,+4.440,-3.115,+2.391,+8.901,+35.200,-8.700,-21.300
10813320,+13.980,-12.350,+5.150,-3.056,+2.452,+8.985,+34.800,-9.100,-21.300
10813330,+17.230,-16.340,+6.270,-2.979,+2.537,+9.050,+34.800,-9.600,-21.300
10813340,+20.230,-19.380,+7.500,-2.961,+2.678,+9.059,+34.500,-9.000,-24.500
10813350,+20.330,-23.660,+8.140,-2.932,+2.659,+9.026,+34.700,-9.600,-21.300
10813360,+19.540,-25.890,+8.440,-2.897,+2.589,+9.026,+34.700,-9.600,-21.700
10813370,+17.900,-27.580,+9.320,-2.849,+2.514,+9.057,+33.700,-10.100,-22.500
10813380,+16.300,-27.550,+9.330,-2.809,+2.479,+9.035,+34.000,-10.100,-21.700
10813390,+13.040,-26.680,+9.150,-2.817,+2.567,+9.039,+33.400,-11.100,-22.700
10813400,+9.880,-26.530,+8.400,-2.740,+2.610,+8.978,+33.700,-10.200,-21.800
10813410,+6.880,-24.700,+8.080,-2.723,+2.663,+9.047,+34.000,-10.600,-22.000
10813420,+4.150,-22.970,+8.380,-2.754,+2.715,+9.052,+33.400,-10.700,-22.000
10813430,+2.930,-21.420,+9.940,-2.730,+2.719,+9.133,+32.900,-10.100,-25.600
10813440,+4.520,-21.710,+11.430,-2.620,+2.847,+9.199,+33.200,-10.100,-22.700
10813450,+4.600,-21.260,+11.760,-2.578,+2.848,+9.150,+33.100,-10.900,-23.000
10813460,+2.900,-21.410,+12.800,-2.644,+2.761,+9.112,+32.600,-10.600,-26.000
10813470,+0.830,-20.670,+15.540,-2.602,+2.737,+9.030,+32.700,-11.900,-23.000
10813480,-2.030,-20.210,+23.390,-2.573,+2.893,+9.140,+32.700,-11.200,-23.000
10813490,-7.540,-22.010,+35.420,-2.598,+2.828,+9.108,+32.300,-11.400,-23.000
10813500,-13.890,-22.290,+39.830,-2.440,+2.587,+9.088,+32.100,-11.900,-23.300
10813510,-13.510,-18.840,+41.040,-2.351,+2.713,+9.169,+31.900,-11.900,-23.700
10813520,-10.870,-16.370,+41.310,-2.199,+2.836,+9.293,+31.600,-11.400,-26.900
10813530,-7.700,-15.030,+40.770,-2.121,+2.956,+9.330,+31.000,-11.400,-27.000
10813540,-4.310,-16.630,+42.760,-2.252,+3.040,+9.122,+31.300,-12.800,-23.900
10813550,-1.390,-16.810,+45.860,-2.266,+2.961,+9.003,+31.000,-13.100,-23.900
10813560,+3.440,-17.870,+47.810,-2.054,+2.927,+9.064,+30.800,-13.400,-24.100
10813570,+6.540,-18.350,+45.530,-1.909,+2.835,+9.095,+30.000,-12.900,-27.000
10813580,+6.530,-15.690,+42.460,-1.860,+2.766,+9.215,+30.300,-13.900,-24.200
10813590,+4.270,-13.580,+40.210,-1.904,+2.676,+9.253,+30.300,-13.800,-24.400
10813600,+3.640,-12.590,+39.590,-1.932,+2.705,+9.271,+29.800,-14.400,-24.200
10813610,+3.430,-10.830,+40.190,-1.799,+2.866,+9.301,+29.800,-15.100,-24.200
10813620,+4.830,-9.270,+37.990,-1.670,+3.101,+9.368,+29.400,-14.900,-24.500
10813630,+7.710,-8.620,+37.920,-1.644,+3.208,+9.463,+29.400,-14.700,-24.900
10813640,+8.630,-9.510,+37.550,-1.609,+3.075,+9.434,+28.900,-15.200,-27.700
10813650,+7.810,-11.340,+36.150,-1.565,+3.047,+9.378,+28.900,-15.200,-25.000
10813660,+6.810,-14.720,+34.390,-1.463,+3.082,+9.430,+28.700,-15.100,-27.900
10813670,+5.380,-18.340,+32.160,-1.421,+3.216,+9.362,+28.600,-15.700,-24.700
10813680,+3.880,-19.680,+31.570,-1.376,+3.294,+9.412,+27.800,-16.600,-25.700
10813690,+2.790,-21.420,+31.080,-1.418,+3.198,+9.418,+28.500,-16.400,-25.400
10813700,+2.940,-21.630,+32.120,-1.442,+3.142,+9.456,+27.600,-16.100,-28.200
10813710,+3.710,-20.530,+33.820,-1.412,+3.185,+9.395,+27.700,-17.400,-25.200
10813720,+4.690,-17.180,+34.760,-1.329,+3.239,+9.392,+27.700,-17.400,-25.200
10813730,+6.070,-15.090,+36.230,-1.189,+3.244,+9.426,+27.300,-16.900,-28.300
10813740,+6.210,-14.450,+35.840,-1.103,+3.154,+9.337,+27.000,-18.200,-25.400
10813750,+5.720,-14.820,+35.750,-1.093,+3.162,+9.310,+26.700,-18.200,-25.200
10813760,+4.800,-14.270,+35.770,-1.048,+3.142,+9.254,+26.400,-18.900,-25.200
10813770,+2.910,-11.440,+33.140,-0.918,+3.185,+9.197,+26.200,-18.500,-25.400
10813780,+2.220,-8.540,+31.990,-0.872,+3.267,+9.282,+26.400,-19.400,-24.700
10813790,+0.980,-7.940,+31.750,-0.933,+3.462,+9.179,+25.100,-19.200,-26.400
10813800,+2.340,-6.640,+32.570,-0.890,+3.540,+9.232,+25.900,-19.000,-26.400
10813810,+3.940,-5.940,+32.730,-0.908,+3.485,+9.251,+25.400,-19.700,-26.200
10813820,+3.860,-4.940,+32.670,-0.876,+3.343,+9.266,+25.600,-19.200,-25.700
10813830,+2.320,-4.290,+33.330,-0.831,+3.330,+9.265,+25.300,-19.200,-25.700
10813840,+0.300,-4.780,+35.030,-0.885,+3.251,+9.307,+25.000,-19.000,-28.700
10813850,+0.140,-5.780,+36.700,-0.872,+3.228,+9.311,+24.400,-19.000,-28.700
10813860,+0.910,-5.760,+37.050,-0.809,+3.293,+9.226,+24.600,-21.000,-25.000
10813870,+2.590,-3.470,+39.150,-0.869,+3.351,+9.175,+23.700,-20.200,-26.400
10813880,+3.440,-2.930,+41.400,-0.706,+3.356,+9.255,+24.300,-21.000,-25.500
10813890,+1.890,-3.760,+42.180,-0.670,+3.368,+9.153,+24.100,-21.500,-25.200
10813900,-0.300,-4.540,+43.990,-0.707,+3.422,+9.114,+24.100,-21.300,-25.700
10813910,-0.190,-3.760,+45.650,-0.646,+3.378,+9.227,+23.200,-21.000,-25.600
10813920,+0.750,-3.210,+44.910,-0.557,+3.324,+9.211,+23.200,-21.700,-25.800
10813930,+0.320,-2.890,+42.800,-0.542,+3.303,+9.307,+23.300,-21.000,-28.700
10813940,-0.810,-1.890,+40.820,-0.499,+3.346,+9.355,+22.900,-22.600,-25.600
10813950,-1.760,-1.630,+37.790,-0.383,+3.371,+9.284,+23.000,-21.800,-25.600
10813960,-1.950,+1.210,+33.060,-0.341,+3.372,+9.335,+22.900,-22.800,-25.400
10813970,-2.520,+5.140,+29.410,-0.422,+3.284,+9.311,+22.400,-22.200,-25.600
10813980,-4.940,+5.130,+29.390,-0.601,+3.279,+9.166,+22.200,-22.600,-25.600
10813990,-7.910,-0.410,+31.190,-0.506,+3.332,+9.074,+22.400,-22.200,-25.800
10814000,-10.350,-7.710,+29.890,-0.262,+3.341,+8.984,+22.000,-22.600,-28.600
10814010,-10.460,-9.660,+27.490,-0.274,+3.209,+9.131,+21.900,-23.000,-27.300
10814020,-9.320,-5.440,+26.110,-0.340,+3.231,+9.207,+21.700,-22.600,-29.100
10814030,-7.720,+3.290,+26.020,-0.355,+3.234,+9.440,+21.400,-22.800,-26.100
10814040,-8.790,+6.730,+24.850,-0.422,+3.255,+9.468,+21.000,-22.500,-29.100
10814050,-10.480,+7.010,+24.700,-0.454,+3.221,+9.424,+21.400,-23.600,-27.400
10814060,-10.680,+6.110,+24.560,-0.460,+3.227,+9.421,+21.300,-22.300,-29.100
10814070,-10.290,+6.260,+24.650,-0.396,+3.268,+9.455,+20.900,-23.600,-27.100
10814080,-11.010,+7.200,+24.370,-0.419,+3.266,+9.416,+20.400,-23.700,-26.600
10814090,-10.770,+8.430,+25.850,-0.551,+3.202,+9.387,+20.700,-22.500,-28.900
10814100,-10.900,+8.710,+28.530,-0.599,+3.100,+9.433,+20.800,-23.800,-26.300
10814110,-11.480,+9.010,+30.620,-0.682,+3.088,+9.545,+20.800,-23.300,-26.100
10814120,-10.820,+11.710,+31.260,-0.512,+3.117,+9.499,+20.100,-24.000,-26.600
10814130,-10.640,+14.370,+28.680,-0.331,+3.107,+9.387,+20.400,-22.500,-28.900
10814140,-10.610,+14.910,+26.090,-0.338,+3.166,+9.315,+20.300,-24.400,-26.100
10814150,-11.940,+14.320,+25.550,-0.411,+3.051,+9.253,+19.500,-24.000,-26.900
10814160,-13.190,+12.250,+26.400,-0.491,+3.014,+9.284,+20.600,-24.500,-25.900
10814170,-14.320,+10.480,+27.880,-0.454,+2.992,+9.336,+20.900,-24.500,-25.400
10814180,-13.700,+11.800,+27.360,-0.335,+2.997,+9.369,+19.800,-24.200,-26.800
10814190,-11.190,+13.800,+25.710,-0.268,+3.057,+9.413,+20.800,-24.100,-25.900
10814200,-10.410,+12.850,+24.290,-0.281,+3.073,+9.483,+20.000,-24.200,-25.900
10814210,-9.800,+9.520,+24.050,-0.420,+3.093,+9.557,+20.100,-24.400,-25.800
10814220,-9.640,+8.710,+24.380,-0.436,+3.035,+9.517,+20.100,-24.200,-26.900
10814230,-9.220,+9.390,+23.550,-0.420,+3.037,+9.394,+19.900,-23.700,-28.600
10814240,-7.670,+11.690,+21.590,-0.360,+2.998,+9.280,+20.000,-24.200,-27.100
10814250,-7.360,+14.490,+19.150,-0.335,+2.969,+9.173,+19.900,-23.500,-28.600
10814260,-8.390,+16.720,+16.580,-0.332,+2.954,+9.182,+20.100,-25.200,-26.900
10814270,-9.220,+17.090,+14.020,-0.424,+2.839,+9.307,+20.100,-24.500,-26.900
10814280,-10.960,+17.110,+11.380,-0.527,+2.815,+9.423,+20.300,-24.500,-27.100
10814290,-13.380,+14.980,+9.710,-0.729,+2.792,+9.405,+19.900,-23.700,-28.600
10814300,-14.970,+8.410,+10.190,-0.821,+2.806,+9.449,+19.800,-24.500,-26.100
10814310,-16.970,-0.160,+10.650,-0.766,+2.841,+9.455,+20.100,-24.500,-26.900
10814320,-17.620,-7.260,+10.500,-0.656,+2.767,+9.506,+20.000,-24.500,-27.100
10814330,-17.960,-11.890,+9.220,-0.561,+2.711,+9.502,+20.100,-23.700,-28.900
10814340,-18.610,-14.230,+7.960,-0.531,+2.713,+9.495,+19.800,-23.500,-26.300
10814350,-20.140,-15.540,+6.920,-0.387,+2.781,+9.511,+19.300,-23.200,-29.700
10814360,-22.000,-16.240,+5.990,-0.277,+2.807,+9.510,+19.400,-23.700,-29.700
10814370,-22.010,-16.320,+5.640,-0.203,+2.709,+9.416,+19.800,-24.200,-27.100
10814380,-19.810,-15.650,+6.450,-0.266,+2.565,+9.298,+19.000,-23.900,-27.300
10814390,-16.850,-14.130,+7.550,-0.151,+2.612,+9.334,+19.300,-24.200,-26.900
10814400,-13.040,-11.000,+9.540,-0.228,+2.584,+9.480,+18.300,-24.500,-28.700
10814410,-8.330,-7.590,+13.220,-0.294,+2.606,+9.428,+19.200,-23.900,-27.300
10814420,-5.150,-3.480,+15.220,-0.164,+2.594,+9.528,+18.800,-23.400,-27.300
10814430,-3.500,-1.290,+14.040,+0.055,+2.594,+9.400,+18.600,-23.200,-30.400
10814440,-2.800,-1.460,+12.220,-0.004,+2.567,+9.443,+18.600,-23.200,-30.600
10814450,-1.470,+0.480,+10.620,-0.024,+2.606,+9.517,+18.700,-23.400,-27.800
10814460,-0.790,+2.160,+9.310,-0.024,+2.632,+9.510,+18.000,-23.700,-27.400
10814470,-2.180,+3.300,+7.030,+0.038,+2.584,+9.562,+18.500,-24.000,-27.300
10814480,-6.750,+4.060,+2.960,+0.024,+2.521,+9.574,+18.100,-23.200,-30.100
10814490,-12.510,+5.000,-2.510,+0.025,+2.499,+9.568,+18.000,-23.900,-27.300
10814500,-17.830,+7.660,-14.160,+0.413,+2.365,+9.469,+18.700,-23.400,-27.900
10814510,-23.830,+6.540,-21.980,-0.018,+2.363,+9.368,+18.400,-22.900,-30.100
10814520,-24.680,+5.730,-25.360,-0.098,+2.484,+9.679,+19.100,-23.400,-28.600
10814530,-23.380,+1.860,-26.580,-0.268,+2.587,+9.654,+18.900,-22.200,-30.600
10814540,-25.530,-2.970,-29.710,-0.224,+2.652,+9.744,+18.400,-22.900,-28.100
10814550,-26.060,-4.580,-34.370,-0.055,+2.441,+9.768,+19.100,-21.600,-30.700
10814560,-25.030,-2.140,-42.430,+0.066,+2.335,+9.586,+18.900,-21.500,-31.100
10814570,-25.240,-2.810,-47.010,-0.228,+2.278,+9.643,+19.400,-21.700,-28.200
10814580,-23.660,-7.690,-44.750,-0.426,+2.206,+9.752,+19.900,-21.200,-28.100
10814590,-22.440,-12.310,-42.760,-0.227,+2.175,+9.664,+20.000,-21.700,-27.900
10814600,-23.920,-16.770,-42.770,-0.283,+2.073,+9.574,+19.900,-21.100,-28.700
10814610,-23.490,-19.200,-39.030,-0.376,+1.857,+9.562,+20.100,-20.200,-28.700
10814620,-21.390,-19.680,-33.740,-0.338,+1.798,+9.411,+20.400,-19.600,-29.100
10814630,-19.910,-18.070,-28.190,-0.254,+1.727,+9.412,+19.900,-19.000,-32.400
10814640,-18.870,-16.210,-21.690,-0.265,+1.651,+9.417,+19.700,-18.800,-31.700
10814650,-17.660,-13.550,-18.110,-0.105,+1.750,+9.456,+20.100,-18.900,-29.400
10814660,-16.000,-9.740,-18.110,-0.006,+1.814,+9.565,+19.700,-18.900,-29.600
10814670,-13.820,-7.800,-18.120,-0.019,+1.874,+9.732,+20.100,-19.300,-30.600
10814680,-12.210,-5.820,-18.140,-0.037,+1.859,+9.865,+20.500,-19.400,-29.700
10814690,-10.110,-5.100,-16.960,-0.159,+1.832,+9.962,+20.400,-18.300,-29.700
10814700,-8.550,-5.790,-16.280,-0.038,+1.911,+9.912,+20.100,-18.800,-30.100
10814710,-7.750,-5.150,-20.610,+0.216,+1.862,+9.765,+20.200,-18.900,-30.700
10814720,-6.000,-2.440,-26.740,+0.133,+1.830,+9.690,+20.500,-18.400,-30.100
10814730,-3.560,-2.630,-28.330,-0.191,+1.858,+9.791,+20.200,-17.300,-32.500
10814740,-1.440,-4.020,-27.770,-0.085,+1.849,+9.805,+20.200,-18.300,-30.200
10814750,-0.870,-4.040,-29.950,+0.034,+1.753,+9.752,+20.900,-18.400,-30.200
10814760,-1.030,-4.200,-31.340,-0.072,+1.701,+9.769,+20.900,-18.400,-30.100
10814770,-1.820,-5.070,-31.000,-0.154,+1.667,+9.802,+21.000,-17.900,-30.200
10814780,-2.050,-4.880,-29.610,-0.213,+1.568,+9.879,+20.900,-18.200,-30.100
10814790,-3.030,-3.930,-29.140,-0.178,+1.560,+9.838,+21.300,-17.500,-30.100
10814800,-3.290,-1.840,-29.410,-0.079,+1.667,+9.669,+21.300,-17.000,-30.400
10814810,-4.540,+0.280,-30.980,-0.060,+1.656,+9.515,+21.300,-17.000,-30.200
10814820,-5.320,+2.330,-32.570,-0.007,+1.548,+9.542,+21.300,-17.000,-30.200
10814830,-5.250,+3.150,-32.240,-0.168,+1.646,+9.700,+21.500,-17.400,-30.400
10814840,-4.690,+0.140,-30.930,-0.230,+1.802,+9.753,+21.800,-17.200,-30.200
10814850,-3.380,-0.310,-33.060,-0.141,+1.743,+9.835,+21.500,-16.700,-30.200
10814860,-1.210,+2.100,-35.850,-0.097,+1.657,+9.769,+21.400,-15.500,-32.400
10814870,-1.600,+1.110,-39.350,-0.072,+1.580,+9.746,+21.600,-15.300,-32.500
10814880,-2.560,-0.730,-41.660,-0.198,+1.490,+9.795,+21.900,-15.100,-32.400
10814890,-3.870,-2.440,-43.740,-0.157,+1.401,+9.751,+22.400,-15.900,-30.100
10814900,-5.710,-3.410,-45.400,-0.354,+1.462,+9.825,+22.400,-15.900,-30.100
10814910,-6.600,-2.800,-44.220,-0.397,+1.496,+9.876,+22.200,-15.200,-30.600
10814920,-7.030,-2.750,-44.590,-0.294,+1.517,+9.856,+22.700,-15.100,-30.100
10814930,-5.460,-1.200,-49.020,-0.146,+1.598,+9.881,+22.200,-14.900,-30.600
10814940,-4.900,-0.880,-54.450,-0.213,+1.686,+9.892,+23.200,-14.300,-31.700
10814950,-6.940,-2.260,-58.470,-0.227,+1.612,+9.842,+23.200,-13.500,-31.600
10814960,-9.200,-6.650,-62.900,-0.192,+1.544,+9.804,+22.700,-12.800,-32.900
10814970,-11.220,-15.300,-64.400,-0.306,+1.574,+9.816,+23.500,-13.300,-30.600
10814980,-11.970,-23.250,-64.150,-0.364,+1.556,+9.780,+23.000,-13.100,-30.700
10814990,-10.890,-27.530,-62.520,-0.359,+1.541,+9.874,+23.700,-11.700,-32.100
10815000,-10.350,-30.910,-58.830,-0.470,+1.596,+9.929,+23.500,-12.200,-32.100
10815010,-11.800,-32.670,-55.470,-0.428,+1.431,+9.952,+23.000,-11.700,-31.600
10815020,-11.870,-29.430,-52.310,-0.442,+1.292,+10.031,+23.500,-11.200,-31.400
10815030,-11.560,-25.450,-47.930,-0.392,+1.188,+10.059,+23.500,-10.200,-31.700
10815040,-11.230,-20.790,-44.730,-0.285,+1.041,+10.007,+23.000,-11.000,-32.100
10815050,-10.950,-16.670,-44.060,-0.123,+1.053,+9.840,+23.500,-9.900,-32.100
10815060,-12.780,-15.590,-43.080,-0.131,+1.159,+9.707,+23.500,-9.400,-35.000
10815070,-11.950,-10.010,-42.540,-0.036,+1.125,+9.815,+23.700,-9.900,-33.200
10815080,-10.960,-5.110,-42.240,-0.140,+1.157,+9.803,+22.700,-9.400,-32.500
10815090,-11.480,-4.400,-39.660,-0.212,+1.227,+9.850,+23.700,-9.700,-33.500
10815100,-10.160,-2.510,-36.970,-0.178,+1.232,+9.819,+23.700,-8.700,-32.500
10815110,-9.210,-1.400,-36.950,-0.076,+1.289,+9.751,+23.500,-8.700,-32.700
10815120,-8.490,+0.100,-36.910,-0.050,+1.280,+9.721,+23.300,-8.200,-35.000
10815130,-7.680,+0.560,-35.490,-0.195,+1.275,+9.728,+23.500,-8.100,-32.500
10815140,-6.820,+0.500,-33.770,-0.271,+1.304,+9.729,+23.800,-7.700,-32.500
10815150,-4.030,-0.090,-32.010,-0.258,+1.271,+9.760,+23.800,-7.600,-32.500
10815160,-1.950,+0.020,-30.550,-0.211,+1.272,+9.772,+24.000,-7.700,-33.600
10815170,-1.780,-0.760,-28.590,-0.197,+1.243,+9.755,+23.800,-7.200,-32.700
10815180,-1.500,-1.350,-27.710,-0.102,+1.201,+9.799,+24.100,-6.700,-33.000
10815190,-0.230,-1.620,-28.640,-0.099,+1.185,+9.869,+23.800,-6.600,-34.700
10815200,+2.260,+1.440,-29.930,-0.118,+1.154,+9.985,+24.000,-6.200,-34.800
10815210,+2.690,+1.090,-29.710,-0.276,+1.214,+9.958,+24.100,-7.200,-33.000
10815220,+2.790,-0.490,-28.080,-0.301,+1.153,+10.061,+24.500,-6.100,-33.000
10815230,+4.560,-0.950,-26.550,-0.338,+1.096,+10.115,+24.300,-6.400,-32.600
10815240,+4.210,-0.130,-25.470,-0.281,+1.073,+10.040,+24.100,-6.600,-33.000
10815250,+2.540,+0.610,-25.060,-0.263,+1.089,+10.038,+24.800,-6.400,-32.600
10815260,+1.780,+1.140,-24.750,-0.229,+1.106,+9.996,+24.500,-5.900,-33.800
10815270,+2.180,+1.120,-25.240,-0.195,+1.177,+9.987,+24.500,-5.900,-34.000
10815280,+3.100,+2.930,-25.540,-0.190,+1.176,+9.935,+24.600,-5.700,-33.800
10815290,+3.060,+2.850,-24.800,-0.258,+1.207,+9.824,+24.500,-4.900,-35.300
10815300,+2.670,+2.260,-23.200,-0.253,+1.223,+9.830,+25.100,-5.700,-34.000
10815310,+3.480,+1.660,-22.360,-0.293,+1.272,+9.885,+24.900,-5.700,-33.800
10815320,+4.510,+0.720,-21.140,-0.283,+1.305,+9.898,+25.100,-5.600,-33.800
10815330,+5.140,-0.760,-21.370,-0.195,+1.255,+9.877,+24.600,-4.400,-35.300
10815340,+5.740,-2.380,-22.240,-0.174,+1.182,+9.909,+24.900,-5.100,-33.000
10815350,+6.320,-4.540,-22.460,-0.221,+1.254,+9.864,+24.900,-5.400,-32.600
10815360,+5.500,-5.440,-23.720,-0.127,+1.238,+9.820,+24.900,-4.800,-33.100
10815370,+3.590,-5.580,-25.100,-0.163,+1.226,+9.834,+24.900,-5.300,-33.800
10815380,+2.460,-4.430,-24.340,-0.183,+1.211,+9.783,+24.800,-4.300,-34.800
10815390,+3.810,-0.480,-25.090,-0.020,+1.207,+9.870,+25.100,-4.300,-33.000
10815400,+4.890,-0.570,-26.500,-0.161,+1.321,+9.788,+24.600,-4.300,-34.600
10815410,+6.760,-2.490,-30.020,-0.060,+1.344,+9.767,+24.900,-4.400,-34.600
10815420,+8.290,-2.880,-34.890,-0.082,+1.317,+9.772,+25.300,-4.100,-33.100
10815430,+8.690,-3.200,-36.390,-0.279,+1.288,+9.893,+25.100,-4.600,-32.800
10815440,+8.380,-2.890,-36.040,-0.304,+1.236,+9.892,+25.300,-3.800,-33.100
10815450,+9.480,-2.100,-34.930,-0.289,+1.232,+9.876,+24.900,-4.300,-34.000
10815460,+10.020,-0.760,-32.510,-0.292,+1.343,+9.916,+25.400,-4.100,-32.800
10815470,+9.410,-1.330,-32.040,-0.220,+1.358,+9.795,+25.100,-4.100,-32.600
10815480,+9.190,+0.590,-31.340,-0.381,+1.429,+9.803,+25.300,-4.300,-33.000
10815490,+10.940,+4.520,-29.330,-0.344,+1.493,+9.790,+25.100,-2.900,-34.800
10815500,+12.590,+7.600,-29.160,-0.355,+1.506,+9.803,+25.600,-3.800,-33.300
10815510,+12.920,+7.110,-28.460,-0.435,+1.434,+9.798,+25.100,-2.900,-34.600
10815520,+13.550,+7.790,-28.760,-0.301,+1.460,+9.861,+25.100,-2.900,-34.500
10815530,+13.290,+8.540,-31.390,-0.294,+1.460,+9.885,+25.800,-3.400,-32.600
10815540,+12.530,+8.160,-31.290,-0.502,+1.478,+9.970,+25.100,-3.300,-33.000
10815550,+13.820,+8.990,-29.490,-0.489,+1.469,+10.037,+25.600,-3.800,-32.500
10815560,+16.370,+9.080,-27.910,-0.557,+1.543,+9.991,+25.900,-3.300,-32.200
10815570,+18.450,+7.270,-27.210,-0.623,+1.609,+9.973,+25.300,-2.500,-32.600
10815580,+20.220,+6.680,-25.450,-0.602,+1.588,+9.922,+26.200,-2.900,-33.100
10815590,+22.020,+7.500,-22.990,-0.654,+1.543,+9.768,+26.400,-3.100,-32.800
10815600,+21.830,+10.780,-20.800,-0.588,+1.545,+9.688,+25.900,-2.600,-34.100
10815610,+21.430,+13.510,-19.900,-0.598,+1.584,+9.671,+26.600,-3.300,-32.300
10815620,+20.250,+13.630,-18.970,-0.611,+1.652,+9.682,+26.900,-3.100,-31.500
10815630,+19.670,+14.700,-18.300,-0.679,+1.751,+9.735,+26.600,-2.900,-33.800
10815640,+21.140,+15.000,-16.860,-0.717,+1.859,+9.738,+26.700,-2.900,-33.600
10815650,+22.590,+15.080,-14.780,-0.770,+1.925,+9.742,+25.900,-2.800,-31.800
10815660,+24.310,+16.450,-13.150,-0.771,+1.928,+9.750,+26.400,-3.300,-31.700
10815670,+26.910,+18.280,-11.460,-0.817,+1.928,+9.667,+27.400,-3.600,-32.600
10815680,+26.760,+19.870,-9.820,-0.835,+1.956,+9.591,+26.700,-3.100,-31.200
10815690,+25.100,+23.840,-9.080,-0.786,+1.977,+9.559,+27.500,-3.600,-31.800
10815700,+23.190,+23.810,-9.740,-0.764,+1.925,+9.477,+27.500,-3.600,-31.800
10815710,+21.330,+22.190,-10.190,-0.863,+1.946,+9.494,+28.200,-4.100,-31.700
10815720,+21.110,+21.160,-10.560,-0.912,+1.999,+9.481,+27.800,-4.100,-31.300
10815730,+21.210,+18.770,-10.620,-1.018,+2.108,+9.493,+27.500,-3.400,-32.500
10815740,+21.810,+19.100,-10.200,-1.094,+2.158,+9.601,+28.500,-4.400,-31.000
10815750,+23.450,+21.520,-10.010,-1.092,+2.167,+9.649,+28.700,-4.500,-30.800
10815760,+28.650,+25.080,-9.590,-1.076,+2.189,+9.788,+29.000,-4.300,-31.000
10815770,+34.970,+26.210,-9.340,-1.218,+2.315,+9.752,+28.500,-4.100,-31.800
10815780,+37.030,+23.170,-9.970,-1.188,+2.309,+9.714,+28.800,-4.900,-31.000
10815790,+39.130,+24.410,-10.780,-1.234,+2.247,+9.606,+29.000,-4.400,-31.300
10815800,+38.630,+27.050,-11.800,-1.323,+2.252,+9.364,+29.300,-5.500,-29.200
10815810,+39.330,+34.370,-12.540,-1.316,+2.302,+9.525,+29.800,-5.000,-30.000
10815820,+42.270,+38.920,-12.010,-1.481,+2.507,+9.539,+29.100,-5.000,-29.000
10815830,+47.730,+38.030,-10.760,-1.560,+2.797,+9.388,+29.900,-5.800,-28.700
10815840,+51.980,+37.400,-8.570,-1.701,+2.918,+9.393,+29.900,-5.400,-30.200
10815850,+55.990,+36.680,-6.300,-1.741,+2.965,+9.436,+30.000,-5.800,-27.900
10815860,+60.000,+37.500,-4.560,-1.797,+2.937,+9.391,+30.600,-6.500,-27.400
10815870,+60.030,+39.150,-3.380,-1.841,+2.927,+9.306,+30.600,-6.700,-26.500
10815880,+60.220,+43.310,-1.930,-1.837,+2.960,+9.214,+31.100,-6.800,-27.200
10815890,+60.950,+49.770,-0.780,-1.922,+3.037,+9.094,+31.300,-7.700,-27.200
10815900,+58.400,+54.010,-0.090,-1.951,+3.135,+8.965,+31.600,-8.000,-26.400
10815910,+56.200,+55.610,+0.820,-2.044,+3.203,+8.852,+31.800,-7.500,-27.600
10815920,+59.470,+55.710,+3.820,-2.174,+3.452,+8.879,+32.300,-8.300,-27.000
10815930,+61.940,+50.280,+6.040,-2.323,+3.592,+8.865,+32.400,-8.300,-24.500
10815940,+59.850,+48.200,+8.360,-2.510,+3.774,+8.862,+33.100,-9.300,-23.800
10815950,+60.550,+44.650,+12.430,-2.644,+4.029,+9.041,+33.200,-10.200,-23.000
10815960,+63.560,+35.240,+17.480,-2.669,+4.018,+8.952,+32.700,-9.300,-24.600
10815970,+70.770,+29.750,+23.860,-2.641,+4.214,+8.918,+33.500,-10.700,-23.200
10815980,+76.130,+24.390,+28.440,-2.641,+4.170,+8.903,+33.500,-11.100,-23.000
10815990,+76.120,+20.610,+29.350,-2.476,+3.949,+8.657,+33.500,-11.900,-22.500
10816000,+73.670,+15.720,+28.220,-2.435,+3.872,+8.332,+33.700,-12.700,-21.800
10816010,+66.020,+10.540,+25.690,-2.368,+3.877,+8.110,+33.200,-12.200,-23.200
10816020,+56.050,+9.510,+22.160,-2.387,+3.843,+7.998,+33.200,-14.000,-21.300
10816030,+51.810,+8.740,+21.090,-2.526,+4.274,+8.066,+32.900,-13.000,-21.000
10816040,+52.030,+5.930,+21.900,-2.717,+4.645,+8.118,+33.400,-14.200,-20.400
10816050,+48.060,+2.710,+23.030,-2.733,+4.701,+8.005,+33.100,-14.700,-20.500
10816060,+42.420,-1.400,+23.500,-2.624,+4.695,+8.042,+33.200,-15.200,-20.200
10816070,+38.700,-6.260,+23.590,-2.594,+4.730,+8.107,+32.900,-15.000,-19.900
10816080,+38.060,-8.280,+24.080,-2.526,+4.844,+8.229,+32.900,-15.800,-19.500
10816090,+42.210,-8.600,+24.850,-2.499,+5.119,+8.121,+33.100,-15.800,-20.400
10816100,+42.570,-10.680,+25.870,-2.416,+4.995,+8.021,+32.800,-17.100,-19.500
10816110,+37.820,-12.670,+25.090,-2.321,+4.874,+7.908,+31.900,-16.500,-19.400
10816120,+33.280,-12.580,+23.860,-2.243,+4.844,+7.888,+32.200,-16.800,-19.400
10816130,+27.540,-12.680,+21.710,-2.214,+4.894,+7.852,+32.500,-17.500,-19.400
10816140,+22.640,-12.840,+20.030,-2.252,+5.127,+7.890,+32.200,-17.800,-19.900
10816150,+19.050,-14.000,+18.780,-2.327,+5.379,+8.002,+31.400,-17.100,-19.300
10816160,+17.940,-14.230,+18.450,-2.363,+5.479,+8.129,+32.400,-18.500,-20.000
10816170,+18.100,-16.920,+20.680,-2.310,+5.365,+8.030,+31.700,-17.300,-21.100
10816180,+20.640,-20.160,+21.930,-2.143,+5.278,+7.826,+32.000,-18.800,-20.200
10816190,+20.360,-20.520,+21.260,-1.983,+5.249,+7.748,+31.200,-19.000,-19.800
10816200,+18.700,-19.160,+20.140,-1.958,+5.307,+7.602,+31.400,-19.300,-19.800
10816210,+17.120,-19.180,+18.960,-1.899,+5.389,+7.600,+30.700,-19.500,-21.100
10816220,+15.140,-19.000,+18.860,-1.864,+5.483,+7.697,+30.900,-19.800,-19.600
10816230,+10.460,-17.180,+18.520,-1.859,+5.543,+7.684,+30.900,-19.900,-20.400
10816240,+7.710,-16.420,+18.810,-1.816,+5.684,+7.684,+30.300,-19.500,-21.400
10816250,+10.070,-19.390,+20.790,-1.843,+5.731,+7.652,+30.400,-20.300,-19.800
10816260,+13.130,-24.460,+23.150,-1.780,+5.726,+7.566,+30.300,-20.600,-19.800
10816270,+13.820,-29.570,+24.870,-1.781,+5.637,+7.740,+30.100,-20.600,-20.100
10816280,+14.150,-30.420,+25.680,-1.596,+5.651,+7.915,+29.600,-20.900,-20.900
10816290,+12.600,-32.020,+26.770,-1.559,+5.658,+7.791,+29.300,-20.900,-21.700
10816300,+8.660,-36.070,+28.020,-1.538,+5.630,+7.733,+29.000,-20.900,-21.100
10816310,+5.570,-39.170,+28.620,-1.367,+5.661,+7.813,+28.500,-21.600,-20.300
10816320,+7.910,-36.410,+27.360,-1.230,+5.726,+7.911,+28.700,-21.800,-20.900
10816330,+9.220,-34.850,+25.810,-1.141,+5.599,+7.798,+28.000,-21.800,-22.700
10816340,+8.480,-36.220,+25.790,-1.067,+5.627,+7.637,+28.000,-22.100,-21.900
10816350,+6.280,-38.130,+25.300,-0.978,+5.717,+7.606,+27.400,-22.300,-21.100
10816360,+4.080,-37.960,+24.740,-0.894,+5.683,+7.728,+27.400,-22.400,-22.200
10816370,+1.370,-35.630,+23.550,-0.797,+5.688,+7.740,+27.200,-22.700,-22.400
10816380,-0.790,-34.080,+23.770,-0.732,+5.757,+7.737,+26.600,-22.900,-22.100
10816390,-0.990,-33.740,+24.590,-0.789,+5.767,+7.765,+26.400,-22.700,-22.600
10816400,-1.710,-31.190,+25.220,-0.678,+5.885,+7.759,+25.800,-22.600,-24.400
10816410,-2.770,-30.900,+25.720,-0.624,+5.949,+7.581,+26.100,-23.200,-22.600
10816420,-4.880,-32.520,+25.510,-0.573,+5.860,+7.646,+25.800,-23.600,-22.400
10816430,-4.310,-29.760,+25.360,-0.494,+5.903,+7.806,+25.400,-23.700,-22.900
10816440,-0.550,-27.440,+23.620,-0.279,+5.944,+7.879,+24.600,-23.700,-22.700
10816450,+2.030,-25.400,+20.280,-0.272,+5.961,+7.918,+24.600,-23.600,-23.900
10816460,+2.420,-23.240,+19.210,-0.300,+6.072,+7.865,+24.100,-23.300,-24.900
10816470,+2.320,-24.580,+19.690,-0.316,+5.952,+7.887,+24.300,-24.000,-23.400
10816480,+0.900,-19.830,+20.540,-0.187,+5.972,+8.038,+24.000,-24.100,-23.600
10816490,-0.760,-18.120,+20.030,-0.111,+5.934,+7.982,+23.200,-23.500,-25.100
10816500,-2.320,-17.310,+19.640,-0.093,+5.925,+7.913,+23.700,-23.800,-23.800
10816510,-2.550,-15.020,+20.280,-0.117,+6.040,+7.971,+23.300,-24.100,-23.100
10816520,+2.910,-11.610,+24.580,-0.232,+6.056,+7.926,+23.000,-24.000,-25.400
10816530,+4.910,-12.220,+28.920,-0.087,+6.015,+7.919,+23.000,-24.500,-24.400
10816540,+5.890,-13.650,+31.340,+0.075,+5.996,+7.820,+23.000,-24.500,-23.600
10816550,+7.370,-16.970,+31.110,+0.216,+5.811,+7.814,+22.400,-25.100,-24.600
10816560,+8.590,-11.270,+27.890,+0.414,+5.742,+7.926,+22.100,-24.800,-25.400
10816570,+7.740,-9.140,+25.320,+0.277,+5.924,+7.848,+22.400,-25.000,-24.800
10816580,+7.700,-9.540,+25.300,+0.218,+5.996,+7.947,+21.400,-25.300,-23.600
10816590,+8.180,-12.320,+24.690,+0.299,+5.980,+7.912,+21.900,-25.500,-24.800
10816600,+8.340,-11.260,+24.330,+0.399,+5.993,+7.784,+21.200,-25.100,-25.600
10816610,+7.530,-13.150,+24.910,+0.354,+5.959,+7.645,+21.400,-25.800,-24.000
10816620,+5.570,-16.670,+25.020,+0.460,+5.939,+7.605,+21.100,-26.400,-24.000
10816630,+6.320,-13.540,+26.980,+0.520,+6.109,+7.614,+20.900,-26.400,-24.800
10816640,+8.960,-12.590,+32.280,+0.336,+6.079,+7.478,+20.800,-26.600,-23.800
10816650,+7.560,-13.310,+38.040,+0.510,+5.860,+7.512,+20.400,-26.700,-24.900
10816660,+6.790,-7.470,+39.120,+0.809,+5.731,+7.749,+19.800,-25.400,-24.100
10816670,+7.770,-4.970,+37.150,+0.817,+5.798,+7.788,+20.000,-27.000,-25.100
10816680,+8.010,-5.620,+34.580,+0.892,+5.907,+7.780,+18.800,-26.500,-25.100
10816690,+6.450,-6.260,+29.530,+1.082,+6.016,+7.760,+19.000,-27.500,-23.800
10816700,+4.180,-5.990,+25.220,+1.013,+6.116,+7.714,+19.500,-27.700,-24.600
10816710,+1.920,-5.650,+22.520,+1.055,+6.204,+7.678,+19.000,-27.800,-23.600
10816720,+0.610,-4.570,+21.500,+0.999,+6.171,+7.527,+18.800,-28.000,-23.600
10816730,-3.380,-1.990,+22.570,+0.905,+6.171,+7.315,+18.700,-27.200,-25.400
10816740,-7.110,+0.390,+24.370,+0.961,+6.076,+7.482,+18.700,-27.800,-23.800
10816750,-7.850,+2.580,+25.720,+0.878,+6.122,+7.546,+18.000,-28.200,-23.800
10816760,-8.190,+3.650,+27.450,+0.981,+6.123,+7.777,+18.200,-27.500,-24.000
10816770,-5.730,+1.380,+25.440,+1.330,+5.986,+8.023,+17.700,-27.700,-24.000
10816780,-3.640,-4.770,+21.680,+1.329,+5.937,+7.989,+17.900,-27.700,-25.600
10816790,-2.320,-10.620,+16.910,+1.474,+5.996,+7.942,+18.300,-28.300,-25.100
10816800,-2.200,-13.700,+11.210,+1.453,+5.928,+7.822,+17.900,-28.600,-24.000
10816810,-2.610,-13.130,+8.180,+1.309,+5.855,+7.799,+17.900,-28.300,-25.100
10816820,-5.130,-9.940,+7.640,+1.280,+5.911,+7.781,+17.500,-27.800,-25.800
10816830,-9.790,-8.970,+9.920,+1.120,+5.992,+7.575,+17.900,-28.300,-24.600
10816840,-18.110,-6.600,+17.430,+0.910,+6.256,+7.457,+17.400,-28.200,-24.800
10816850,-28.670,-6.270,+24.500,+0.981,+6.067,+7.456,+17.200,-27.700,-26.300
10816860,-37.440,-6.120,+30.960,+1.091,+5.984,+7.637,+17.400,-28.300,-25.300
10816870,-39.620,-6.580,+34.740,+1.233,+5.989,+7.887,+17.400,-28.200,-25.100
10816880,-41.870,-9.610,+30.570,+1.786,+5.714,+7.944,+16.900,-28.200,-25.100
10816890,-41.030,-6.900,+23.010,+1.720,+5.530,+8.077,+16.400,-27.500,-27.400
10816900,-40.500,-7.400,+19.500,+1.490,+5.586,+7.921,+16.400,-27.700,-26.800
10816910,-39.770,-8.290,+17.160,+1.479,+5.396,+8.057,+16.300,-27.800,-25.800
10816930,-46.140,-5.330,+27.310,+1.224,+5.502,+7.994,+16.100,-27.200,-26.600
10816940,-52.610,-1.530,+33.940,+1.293,+5.510,+7.987,+16.300,-26.800,-27.900
10816950,-60.410,+5.630,+41.890,+1.164,+5.360,+7.909,+15.400,-27.200,-27.000
10816960,-64.890,+10.050,+48.420,+1.417,+5.086,+8.222,+15.700,-26.800,-28.500
10816970,-64.810,+9.720,+49.950,+1.685,+4.889,+8.401,+15.200,-26.300,-28.000
10816980,-66.950,+8.980,+51.270,+1.584,+4.612,+8.367,+15.500,-26.500,-29.300
10816990,-64.720,+14.080,+53.990,+1.588,+4.374,+8.512,+14.600,-25.400,-30.300
10817000,-57.620,+18.060,+57.310,+1.608,+4.261,+8.407,+14.900,-25.800,-28.600
10817010,-52.780,+22.220,+62.020,+1.529,+4.326,+8.385,+14.400,-25.100,-31.000
10817020,-53.000,+24.460,+67.940,+1.496,+4.418,+8.353,+14.600,-25.400,-29.000
10817030,-51.370,+31.610,+74.460,+1.582,+4.376,+8.643,+13.600,-24.400,-29.500
10817040,-45.220,+31.420,+76.490,+1.729,+4.367,+8.903,+14.100,-24.800,-31.500
10817050,-38.950,+29.770,+77.070,+1.796,+4.173,+8.980,+13.800,-25.100,-31.500
10817060,-34.180,+29.150,+78.090,+1.843,+3.928,+8.937,+13.800,-24.900,-30.800
10817070,-30.750,+29.780,+78.360,+1.992,+3.852,+8.952,+13.300,-24.600,-31.600
10817080,-25.820,+25.830,+74.980,+2.065,+3.815,+9.021,+13.300,-25.700,-29.800
10817090,-21.510,+21.740,+70.020,+2.130,+3.719,+9.038,+13.100,-24.800,-31.600
10817100,-20.060,+19.900,+63.060,+2.156,+3.739,+8.838,+13.000,-25.400,-31.000
10817110,-20.790,+20.640,+56.170,+2.157,+3.784,+8.878,+12.300,-24.700,-30.100
10817120,-21.930,+21.760,+50.680,+2.130,+3.820,+8.850,+12.800,-25.300,-30.800
10817130,-23.050,+20.440,+46.080,+2.027,+3.739,+9.029,+12.200,-24.400,-30.600
10817140,-22.910,+20.310,+41.010,+2.061,+3.655,+9.083,+12.300,-25.300,-31.100
10817150,-22.390,+21.960,+36.730,+2.110,+3.622,+9.053,+11.800,-24.500,-30.600
10817170,-18.870,+21.180,+28.480,+2.161,+3.642,+8.870,+12.300,-25.100,-32.100
10817180,-20.750,+22.040,+24.450,+2.145,+3.429,+8.886,+11.800,-25.600,-31.600
10817190,-25.190,+23.990,+20.480,+2.145,+3.269,+9.012,+11.200,-25.400,-31.100
10817200,-29.690,+22.800,+16.480,+1.976,+3.344,+9.005,+12.300,-24.800,-32.000
10817210,-32.690,+20.840,+13.220,+1.867,+3.409,+9.123,+11.400,-23.900,-33.600
10817220,-32.130,+19.240,+11.040,+1.758,+3.329,+9.250,+12.500,-24.900,-30.800
10817230,-31.550,+16.750,+9.120,+1.800,+3.353,+9.181,+12.800,-24.800,-31.600
10817240,-33.940,+15.930,+5.560,+1.856,+3.303,+9.254,+12.300,-24.800,-30.800
10817250,-34.310,+17.680,+1.770,+1.783,+3.179,+9.307,+12.800,-24.400,-31.600
10817260,-34.360,+20.390,-2.000,+1.817,+3.115,+9.194,+12.600,-23.900,-31.100
10817270,-35.540,+21.640,-5.840,+1.797,+3.067,+9.129,+13.100,-23.600,-32.100
10817280,-33.540,+24.260,-9.250,+1.814,+3.066,+9.229,+13.000,-23.300,-32.900
10817290,-32.130,+26.790,-12.570,+1.822,+3.018,+9.284,+13.300,-22.900,-32.400
10817300,-33.220,+27.720,-13.320,+1.728,+3.059,+9.235,+13.300,-22.900,-31.600
10817310,-33.380,+27.180,-13.140,+1.476,+2.821,+9.327,+14.300,-22.600,-31.600
10817320,-34.780,+30.270,-13.790,+1.386,+2.550,+9.275,+14.100,-22.300,-31.500
10817330,-37.530,+34.140,-16.460,+1.399,+2.528,+9.288,+14.300,-22.000,-31.500
10817340,-38.010,+32.380,-19.840,+1.419,+2.553,+9.256,+14.700,-21.600,-31.600
10817350,-36.260,+23.540,-22.330,+1.455,+2.632,+9.260,+15.100,-21.500,-31.600
10817360,-32.040,+16.730,-24.360,+1.404,+2.607,+9.367,+15.700,-21.100,-31.800
10817370,-27.640,+12.940,-25.910,+1.263,+2.548,+9.474,+15.500,-20.600,-32.100
10817380,-26.060,+10.250,-27.970,+1.280,+2.417,+9.362,+15.900,-20.600,-32.300
10817390,-25.720,+9.240,-31.210,+1.253,+2.338,+9.393,+15.200,-19.000,-32.600
10817400,-24.380,+11.790,-34.980,+1.114,+2.319,+9.491,+15.400,-18.800,-32.600
10817410,-24.880,+15.120,-38.990,+1.125,+2.283,+9.448,+16.400,-19.000,-34.000
10817420,-26.130,+16.080,-43.680,+1.103,+2.359,+9.557,+16.700,-19.500,-32.200
10817430,-25.330,+13.970,-45.430,+0.938,+2.405,+9.650,+17.300,-19.200,-32.700
10817440,-21.960,+12.290,-46.150,+0.954,+2.356,+9.611,+17.500,-18.700,-32.500
10817450,-16.470,+13.560,-47.690,+0.889,+2.275,+9.564,+18.100,-18.200,-34.400
10817460,-11.390,+15.760,-49.010,+0.821,+2.159,+9.489,+18.000,-17.700,-33.700
10817470,-10.570,+18.480,-51.220,+0.836,+2.027,+9.414,+17.600,-16.200,-32.900
10817480,-11.450,+23.460,-53.980,+0.786,+1.977,+9.548,+18.800,-17.000,-34.400
10817490,-11.180,+28.650,-55.770,+0.603,+2.021,+9.619,+19.300,-17.000,-32.500
10817500,-11.140,+31.190,-57.820,+0.548,+2.117,+9.686,+19.600,-17.000,-32.400
10817510,-11.370,+33.200,-59.970,+0.448,+2.087,+9.811,+20.100,-16.500,-33.500
10817520,-10.480,+34.810,-59.180,+0.313,+2.108,+9.791,+20.100,-15.900,-32.200
10817530,-11.700,+33.530,-54.230,+0.159,+2.159,+9.544,+20.800,-15.500,-33.000
10817540,-14.770,+32.140,-51.390,+0.147,+2.084,+9.544,+21.100,-14.800,-33.500
10817550,-15.850,+36.450,-49.700,+0.067,+1.964,+9.451,+21.600,-15.300,-32.700
10817560,-15.450,+42.740,-47.650,-0.098,+2.029,+9.519,+21.900,-14.600,-33.400
10817570,-15.990,+45.230,-44.110,-0.113,+2.132,+9.560,+21.900,-14.500,-32.200
10817580,-16.330,+49.050,-39.500,-0.271,+2.000,+9.585,+22.900,-14.300,-31.200
10817590,-16.180,+52.940,-36.110,-0.247,+1.929,+9.619,+23.500,-13.700,-31.100
10817600,-17.240,+55.660,-34.930,-0.318,+1.902,+9.621,+24.000,-13.700,-31.000
10817610,-16.280,+57.420,-35.460,-0.309,+1.873,+9.713,+24.100,-12.300,-32.600
10817620,-15.770,+55.360,-37.870,-0.380,+1.892,+9.716,+25.300,-12.500,-31.700
10817630,-15.520,+50.900,-39.130,-0.592,+1.774,+9.938,+25.400,-12.600,-30.200
10817640,-12.480,+42.780,-37.210,-0.740,+1.825,+10.145,+25.600,-12.200,-31.000
10817650,-9.590,+35.710,-34.060,-0.856,+1.881,+10.109,+26.600,-11.800,-29.700
10817660,-8.670,+31.160,-33.250,-0.886,+1.755,+10.052,+26.400,-11.300,-29.700
10817670,-10.820,+27.230,-34.470,-0.957,+1.757,+9.969,+27.400,-11.300,-30.700
10817680,-15.140,+22.150,-36.860,-0.955,+1.642,+9.809,+27.400,-11.100,-29.500
10817690,-17.650,+20.160,-37.510,-0.994,+1.544,+9.818,+27.700,-11.000,-30.300
10817700,-18.950,+16.780,-37.210,-1.037,+1.595,+9.825,+27.800,-10.500,-30.200
10817710,-17.900,+13.430,-35.110,-1.013,+1.648,+9.789,+27.800,-10.100,-29.200
10817720,-15.480,+10.810,-32.760,-1.048,+1.646,+9.814,+28.000,-10.000,-30.000
10817730,-11.620,+10.400,-30.810,-0.982,+1.623,+9.823,+28.300,-9.600,-29.200
10817740,-8.600,+11.750,-30.380,-1.002,+1.573,+9.807,+28.500,-9.300,-28.800
10817750,-7.310,+11.590,-29.120,-1.237,+1.542,+9.829,+28.500,-8.800,-29.200
10817760,-7.150,+12.430,-26.580,-1.300,+1.423,+9.841,+28.700,-8.600,-28.800
10817770,-8.380,+14.970,-26.690,-1.193,+1.332,+9.864,+28.800,-7.700,-30.500
10817780,-10.460,+17.340,-27.070,-1.224,+1.328,+9.820,+29.100,-8.500,-28.800
10817790,-12.020,+16.820,-27.250,-1.346,+1.311,+9.844,+29.500,-8.200,-28.800
10817800,-11.090,+16.000,-27.550,-1.272,+1.391,+9.808,+29.300,-8.000,-28.800
10817810,-11.420,+12.760,-29.760,-1.269,+1.325,+9.762,+29.600,-7.500,-29.300
10817820,-10.480,+11.990,-30.780,-1.304,+1.307,+9.801,+28.800,-5.700,-31.500
10817830,-9.970,+10.500,-30.660,-1.427,+1.265,+9.806,+29.600,-6.800,-28.300
10817840,-8.930,+6.750,-29.180,-1.470,+1.233,+9.730,+29.800,-5.800,-30.200
10817850,-6.220,+6.500,-28.690,-1.374,+1.164,+9.767,+29.100,-5.100,-31.500
10817870,-2.510,+8.780,-34.220,-1.400,+1.219,+9.769,+30.400,-5.800,-29.200
10817880,-4.050,+3.910,-35.750,-1.554,+1.234,+9.822,+30.300,-5.800,-27.900
10817890,-4.010,+0.810,-34.280,-1.680,+1.296,+9.878,+30.400,-5.500,-28.300
10817900,-3.900,-1.440,-32.330,-1.672,+1.194,+9.851,+30.600,-5.200,-28.200
10817910,-3.820,-1.040,-31.610,-1.658,+1.086,+9.812,+30.600,-5.500,-28.500
10817920,-3.080,-2.880,-29.460,-1.674,+1.045,+9.809,+30.700,-4.900,-28.500
10817930,+0.150,-2.890,-28.000,-1.591,+0.954,+9.829,+30.300,-4.200,-29.800
10817940,+2.180,-2.930,-29.080,-1.595,+1.010,+9.821,+30.700,-4.200,-28.300
10817950,+1.950,-6.070,-29.900,-1.637,+1.165,+9.864,+30.600,-4.500,-29.000
10817960,+0.220,-10.630,-33.170,-1.566,+1.028,+9.804,+30.700,-3.900,-28.800
10817970,-1.150,-8.390,-35.170,-1.648,+1.045,+9.751,+30.600,-3.700,-29.000
10817980,-3.560,-9.970,-36.910,-1.628,+1.126,+9.684,+30.600,-3.400,-30.200
10817990,-5.230,-11.210,-36.930,-1.572,+1.067,+9.691,+30.400,-3.200,-29.200
10818000,-4.180,-14.520,-35.770,-1.465,+1.052,+9.717,+30.600,-3.200,-28.800
10818010,-3.440,-22.060,-36.890,-1.396,+1.085,+9.581,+30.700,-2.900,-29.300
10818020,-2.060,-24.820,-36.540,-1.425,+1.012,+9.651,+30.600,-2.900,-29.300
10818030,+0.800,-27.740,-37.880,-1.424,+1.008,+9.785,+30.100,-2.600,-29.300
10818040,+2.060,-31.520,-37.090,-1.571,+1.102,+9.849,+30.300,-2.600,-29.700
10818050,+5.240,-28.590,-34.720,-1.656,+1.039,+10.060,+29.800,-1.600,-31.200
10818060,+2.810,-25.620,-34.830,-1.423,+0.995,+9.837,+29.600,-1.900,-30.200
10818070,-6.010,-28.410,-38.120,-1.285,+0.962,+9.555,+29.900,-1.400,-30.800
10818080,-10.070,-27.900,-38.950,-1.294,+0.877,+9.551,+29.500,-1.100,-30.300
10818090,-7.630,-27.040,-37.330,-1.241,+0.893,+9.661,+29.500,-0.600,-31.200
10818100,-3.700,-27.960,-33.200,-1.180,+0.967,+9.701,+29.100,-0.500,-32.200
10818110,-1.070,-27.540,-29.630,-1.104,+0.926,+9.778,+29.300,-0.900,-30.700
10818120,-1.310,-29.440,-29.320,-1.049,+0.810,+9.764,+29.500,-0.100,-31.000
10818130,-1.250,-31.380,-28.450,-1.014,+0.775,+9.828,+28.700,+0.300,-32.600
10818140,+0.130,-30.580,-26.910,-0.967,+0.798,+9.940,+28.500,+0.000,-31.300
10818150,+3.340,-29.020,-24.550,-0.960,+0.874,+9.979,+28.700,+0.200,-31.300
10818160,+5.260,-26.790,-22.290,-0.908,+0.905,+9.886,+28.000,+0.300,-31.800
10818170,+3.710,-25.050,-21.990,-0.880,+0.858,+9.809,+28.200,+0.700,-33.000
10818180,+1.830,-22.330,-21.930,-0.890,+0.946,+9.771,+28.000,+0.300,-32.300
10818190,+0.950,-20.270,-23.590,-0.698,+0.998,+9.852,+27.000,+1.900,-33.300
10818200,+0.870,-18.210,-25.470,-0.662,+0.988,+9.836,+27.800,+0.900,-33.500
10818210,+0.580,-21.440,-26.320,-0.728,+0.929,+9.842,+26.900,+2.200,-33.500
10818220,+1.170,-23.390,-25.800,-0.691,+0.868,+9.946,+26.900,+1.900,-33.800
10818230,+4.420,-22.850,-23.630,-0.799,+0.900,+9.917,+26.600,+1.200,-33.800
10818240,+4.120,-18.080,-18.760,-0.748,+0.978,+9.810,+27.000,+0.600,-32.800
10818250,+3.280,-9.620,-16.240,-0.612,+0.922,+9.876,+27.200,+1.900,-34.300
10818260,+3.370,-3.660,-14.590,-0.553,+0.904,+9.827,+27.200,+0.700,-33.500
10818270,+3.920,-2.730,-14.500,-0.575,+0.961,+9.871,+27.200,+1.400,-33.100
10818280,+5.190,-7.460,-14.350,-0.619,+0.895,+9.924,+27.000,+0.900,-33.500
10818290,+8.050,-9.020,-12.940,-0.595,+1.029,+10.006,+26.900,+2.100,-33.100
10818300,+8.960,-13.140,-12.850,-0.687,+1.042,+9.924,+26.900,+1.600,-33.000
10818310,+6.870,-15.120,-14.540,-0.586,+0.959,+9.789,+26.600,+2.600,-34.600
10818320,+4.810,-14.250,-18.940,-0.391,+0.785,+9.729,+26.400,+2.600,-34.600
10818330,+3.460,-15.440,-22.400,-0.475,+0.755,+9.753,+25.600,+2.100,-33.600
10818340,+0.770,-17.560,-24.540,-0.520,+0.895,+9.730,+26.200,+1.700,-33.800
10818350,-0.910,-17.600,-24.940,-0.445,+1.034,+9.691,+26.400,+2.900,-35.500
10818360,+1.420,-11.960,-24.530,-0.443,+1.090,+9.829,+26.400,+2.100,-34.000
10818370,+4.260,-14.030,-24.540,-0.508,+1.123,+9.914,+25.900,+2.400,-35.600
10818380,+8.660,-14.610,-23.010,-0.527,+1.057,+10.033,+26.200,+2.400,-34.800
10818390,+12.710,-13.820,-20.600,-0.475,+1.068,+9.915,+25.600,+3.100,-35.800
10818400,+12.390,-8.520,-18.710,-0.569,+1.061,+9.736,+25.600,+3.200,-35.600
10818410,+9.590,-6.650,-17.930,-0.408,+1.077,+9.744,+25.900,+2.600,-34.000
10818420,+7.590,-2.730,-16.830,-0.440,+1.046,+9.812,+25.800,+2.700,-33.800
10818430,+7.100,-1.350,-17.000,-0.453,+1.024,+9.895,+25.900,+2.100,-34.000
10818440,+8.150,-0.260,-17.310,-0.408,+1.038,+9.909,+25.600,+2.400,-34.500
10818450,+9.070,-2.550,-21.120,-0.233,+1.011,+9.869,+25.800,+2.600,-34.000
10818460,+8.730,-5.630,-25.740,-0.202,+1.104,+9.843,+25.900,+2.900,-34.100
10818470,+8.850,-8.720,-28.500,-0.284,+1.226,+9.970,+25.900,+2.700,-34.300
10818480,+10.230,-10.000,-29.030,-0.310,+1.414,+9.974,+25.600,+2.700,-34.000
10818490,+13.360,-12.330,-28.390,-0.563,+1.293,+10.011,+25.600,+3.500,-35.500
10818500,+14.600,-15.590,-29.220,-0.231,+1.272,+9.782,+25.600,+2.700,-34.300
10818510,+12.510,-9.630,-22.700,-0.424,+1.410,+9.884,+25.600,+3.200,-34.000
10818520,+11.040,-9.160,-19.590,-0.371,+1.285,+9.875,+25.300,+2.900,-34.000
10818530,+10.060,-10.030,-16.140,-0.375,+1.159,+9.914,+25.400,+3.500,-35.500
10818540,+7.720,-9.690,-14.570,-0.272,+1.162,+9.938,+25.300,+2.700,-34.600
10818550,+3.970,-9.200,-13.360,-0.314,+1.268,+9.891,+24.800,+3.900,-34.800
10818560,+2.010,-8.020,-10.820,-0.310,+1.348,+9.827,+24.900,+3.200,-34.800
10818570,+0.920,-14.630,-20.180,-0.461,+0.543,+9.914,+24.900,+3.200,-34.500
10818580,-2.700,-13.070,-19.370,+0.035,+1.277,+9.675,+24.800,+3.400,-34.600
10818590,-5.380,-12.280,-20.070,-0.086,+1.395,+9.797,+24.600,+4.400,-36.800
10818600,-3.960,-12.330,-18.340,-0.297,+1.369,+10.069,+24.300,+4.200,-36.800
10818610,-3.610,-11.990,-17.280,-0.165,+1.416,+9.970,+24.800,+3.700,-35.000
10818620,-4.440,-10.790,-10.220,-0.036,+1.790,+9.774,+24.800,+3.900,-34.800
10818630,-1.580,-8.170,-6.190,-0.355,+1.378,+9.970,+24.000,+4.700,-35.600
10818640,+1.790,-5.800,-5.820,-0.293,+1.024,+9.992,+24.800,+4.400,-35.100
10818650,-4.390,-7.570,-12.580,-0.108,+0.662,+10.021,+24.500,+3.400,-35.100
10818660,-13.140,-7.240,-11.190,-0.076,+1.026,+9.701,+24.600,+3.900,-35.100
10818670,-18.260,-4.930,-13.800,-0.114,+0.949,+9.876,+24.600,+4.400,-35.100
10818680,-18.110,-1.890,-14.120,-0.055,+1.058,+9.732,+24.100,+4.400,-35.300
10818690,-15.730,-1.670,-13.000,-0.039,+1.208,+9.787,+24.300,+4.900,-36.300
10818700,-8.220,-4.670,-11.630,-0.088,+1.397,+10.032,+24.000,+5.000,-35.100
10818710,-0.770,-1.700,-9.900,-0.110,+1.650,+10.203,+24.300,+4.900,-35.300
10818720,+4.440,+4.880,-4.960,-0.148,+1.621,+10.255,+24.300,+4.700,-35.100
10818730,+7.220,+10.470,+1.040,-0.144,+1.346,+10.163,+24.500,+4.900,-35.100
10818740,+13.150,+12.810,+12.490,-0.494,+0.669,+10.275,+24.800,+4.900,-35.100
10818750,+12.800,+10.470,+8.930,+0.001,+0.888,+9.804,+24.500,+4.200,-35.100
10818760,+4.350,+7.930,+4.960,-0.039,+0.928,+9.780,+24.600,+5.000,-36.300
10818770,+3.970,+7.100,+5.530,-0.210,+0.991,+9.897,+24.500,+4.000,-34.600
10818780,+7.070,+6.960,+7.290,-0.149,+1.015,+9.803,+24.800,+4.400,-34.800
10818790,+6.910,+4.360,+6.900,-0.107,+1.022,+9.700,+24.500,+4.000,-35.000
10818800,+8.040,-0.080,+8.380,-0.220,+1.122,+9.761,+24.600,+4.400,-36.000
10818810,+11.840,-0.990,+10.130,-0.232,+1.196,+10.014,+24.800,+4.000,-35.000
10818820,+14.460,+0.260,+11.830,-0.220,+1.360,+10.129,+24.500,+4.400,-34.800
10818830,+12.570,+2.740,+13.740,-0.208,+1.510,+10.101,+25.100,+3.700,-35.000
10818840,+9.730,+6.640,+24.650,-0.227,+1.742,+10.038,+24.500,+3.400,-35.000
10818850,+8.820,+8.060,+44.860,-0.401,+1.773,+9.884,+24.900,+2.900,-35.000
10818860,+7.140,+0.700,+63.320,-0.531,+1.346,+9.747,+24.500,+2.900,-34.800
10818870,+6.160,-7.650,+73.180,-0.427,+0.920,+9.811,+24.600,+3.100,-36.000
10818880,+3.390,-8.210,+78.100,-0.424,+0.921,+9.901,+24.600,+2.700,-35.600
10818890,+0.010,-4.590,+77.020,-0.277,+0.888,+9.928,+24.500,+1.900,-34.800
10818900,-1.280,-1.640,+69.910,-0.097,+1.074,+9.794,+24.300,+0.900,-34.600
10818910,-2.930,-1.630,+67.840,-0.025,+1.427,+9.723,+24.600,+0.700,-34.600
10818920,-1.560,-0.710,+68.570,-0.361,+1.435,+9.628,+24.300,+0.200,-34.600
10818930,+1.410,-0.900,+67.300,-0.176,+1.408,+9.539,+24.100,+0.000,-34.600
10818940,+2.540,-3.380,+66.100,+0.106,+1.435,+9.556,+24.100,-0.600,-35.000
10818950,+4.630,-5.090,+59.030,+0.261,+1.373,+9.707,+23.700,+0.300,-37.000
10818960,+7.680,-2.820,+48.830,+0.402,+1.568,+9.719,+23.500,-1.000,-34.700
10818970,+8.910,-0.520,+40.590,+0.368,+1.565,+9.757,+23.300,-0.500,-35.400
10818980,+9.840,-0.590,+34.230,+0.178,+1.485,+9.757,+23.700,-2.000,-34.700
10818990,+6.830,-0.880,+28.470,+0.156,+1.379,+9.768,+23.000,-0.800,-36.300
10819000,+5.150,-1.030,+23.690,+0.138,+1.296,+9.904,+23.500,-2.100,-34.700
10819010,+4.390,+2.170,+19.430,+0.251,+1.323,+9.892,+23.700,-2.500,-34.500
10819020,+2.090,+5.860,+15.710,+0.364,+1.415,+9.708,+23.800,-2.800,-34.400
10819030,+0.630,+7.090,+16.080,+0.159,+1.499,+9.518,+23.200,-1.800,-36.200
10819040,-0.240,+6.270,+16.520,+0.162,+1.342,+9.485,+23.800,-2.300,-35.700
10819050,-1.600,+5.510,+14.470,+0.290,+1.389,+9.487,+23.200,-2.000,-36.000
10819060,-2.350,+4.480,+13.620,+0.199,+1.513,+9.549,+23.500,-2.800,-34.500
10819070,-1.890,+3.210,+11.570,+0.268,+1.531,+9.664,+23.300,-2.900,-34.500
10819080,-1.010,+3.200,+9.800,+0.262,+1.582,+9.652,+23.300,-2.100,-36.500
10819090,+1.270,+3.140,+11.110,+0.147,+1.622,+9.592,+23.700,-2.900,-34.200
10819100,+2.440,+2.760,+13.090,+0.118,+1.437,+9.617,+23.500,-2.800,-35.500
10819110,+1.840,+2.000,+14.590,+0.038,+1.404,+9.676,+23.300,-3.100,-34.400
10819120,+0.260,+2.440,+18.420,+0.087,+1.501,+9.727,+23.800,-2.800,-35.500
10819130,-0.400,+4.770,+22.570,+0.021,+1.464,+9.721,+23.800,-3.300,-34.200
10819140,-0.660,+5.070,+23.250,+0.062,+1.539,+9.661,+23.700,-3.800,-34.000
10819150,+0.210,+3.530,+21.900,+0.172,+1.614,+9.611,+23.500,-3.800,-34.200
10819160,+0.960,+0.590,+20.790,+0.094,+1.695,+9.605,+23.700,-3.800,-34.400
10819170,+1.740,-0.310,+18.780,+0.247,+1.621,+9.712,+23.300,-3.600,-34.000
10819180,+1.390,+0.030,+18.700,+0.325,+1.522,+9.754,+23.500,-3.400,-35.500
10819190,+0.870,-1.450,+16.390,+0.173,+1.425,+9.767,+23.500,-4.400,-33.900
10819200,+1.650,-1.390,+13.920,+0.133,+1.404,+9.870,+23.500,-4.300,-34.200
10819210,+0.810,+0.700,+14.200,+0.044,+1.570,+9.790,+23.500,-3.300,-35.400
10819220,-0.990,+1.940,+13.990,+0.003,+1.514,+9.780,+23.700,-4.800,-34.200
10819230,-1.860,+2.870,+12.880,+0.172,+1.334,+9.820,+23.500,-4.600,-34.400
10819240,-3.160,+2.270,+13.230,+0.147,+1.323,+9.841,+23.200,-3.400,-35.900
10819250,-3.040,+1.590,+13.150,+0.138,+1.296,+9.846,+23.300,-4.900,-34.500
10819260,-4.090,+2.040,+10.230,+0.164,+1.308,+9.823,+23.200,-3.400,-36.500
10819270,-5.730,+2.580,+7.680,+0.173,+1.412,+9.780,+23.300,-4.400,-34.000
10819280,-7.240,+2.430,+5.310,+0.199,+1.524,+9.733,+23.200,-4.100,-35.400
10819290,-7.500,+2.020,+4.190,+0.269,+1.473,+9.707,+23.500,-4.600,-34.200
10819300,-5.640,+0.310,+5.160,+0.176,+1.497,+9.637,+23.000,-3.100,-36.500
10819310,-3.100,-2.520,+5.480,+0.122,+1.500,+9.738,+22.900,-3.600,-36.000
10819320,-0.430,-4.060,+4.860,+0.184,+1.512,+9.803,+23.700,-4.300,-34.400
10819330,+0.640,-4.190,+4.450,+0.114,+1.487,+9.860,+23.200,-4.400,-34.200
10819340,+0.450,-3.220,+3.830,+0.118,+1.402,+9.898,+23.200,-4.900,-34.000
10819350,+0.520,-1.690,+4.410,+0.109,+1.344,+9.945,+23.300,-4.100,-35.400
10819360,-0.420,-0.020,+5.650,+0.089,+1.312,+9.905,+23.200,-4.300,-35.400
10819370,-4.060,+2.160,+4.430,+0.137,+1.228,+9.926,+23.700,-4.600,-34.000
10819380,-6.440,+3.500,+3.760,+0.102,+1.296,+9.865,+22.700,-3.400,-34.900
10819390,-8.140,+4.420,+3.140,+0.113,+1.359,+9.826,+23.000,-3.600,-34.200
10819400,-8.980,+4.740,+2.030,+0.203,+1.376,+9.710,+23.200,-4.100,-35.400
10819410,-7.170,+3.710,+4.840,+0.124,+1.505,+9.713,+22.500,-3.600,-37.200
10819420,-2.570,+4.190,+7.140,+0.129,+1.403,+9.656,+23.500,-4.300,-34.400
10819430,-2.200,+1.970,+7.580,+0.180,+1.398,+9.603,+23.300,-4.900,-34.200
10819440,-2.220,-0.670,+9.110,+0.037,+1.466,+9.723,+23.700,-3.900,-34.400
10819450,-0.240,+0.650,+10.910,+0.107,+1.416,+9.732,+23.700,-4.900,-34.400
10819460,-2.090,+1.170,+9.290,+0.141,+1.356,+9.631,+23.300,-4.400,-34.000
10819470,-3.900,+0.210,+8.260,+0.072,+1.320,+9.721,+23.700,-4.900,-34.000
10819480,-2.890,+0.090,+9.120,-0.033,+1.242,+9.790,+23.300,-4.300,-34.400
10819490,-4.400,+0.910,+9.030,+0.071,+1.220,+9.756,+23.200,-5.100,-34.400
10819500,-5.600,+0.290,+10.840,+0.006,+1.238,+9.764,+23.300,-4.400,-34.200
10819510,-7.640,+0.300,+10.640,+0.025,+1.156,+9.756,+23.500,-4.600,-34.000
10819520,-9.950,-0.670,+8.550,+0.103,+1.207,+9.766,+23.200,-4.800,-34.200
10819530,-9.640,-1.580,+8.910,+0.103,+1.346,+9.865,+23.300,-3.900,-35.400
10819540,-6.790,-1.530,+11.060,+0.095,+1.475,+9.874,+23.300,-4.800,-34.200
10819550,-4.400,-0.530,+24.860,+0.250,+1.711,+9.966,+22.900,-3.600,-36.500
10819560,-1.600,-0.380,+40.380,-0.022,+1.641,+9.799,+22.900,-3.900,-36.200
10819570,-1.640,+0.280,+41.780,+0.127,+1.238,+9.648,+23.200,-4.300,-35.200
10819580,-3.590,-1.990,+35.040,+0.257,+1.068,+9.730,+23.000,-4.900,-34.400
10819590,-6.910,-4.480,+25.150,+0.289,+1.095,+9.850,+22.700,-4.100,-36.700
10819600,-7.650,-4.100,+17.060,+0.185,+1.089,+10.009,+22.700,-5.400,-34.400
10819610,-5.670,-2.690,+11.490,+0.121,+1.041,+10.053,+22.200,-4.300,-36.700
10819620,-4.310,-1.550,+7.370,+0.057,+0.989,+10.030,+22.900,-5.400,-34.500
10819630,-4.420,-1.090,+2.760,+0.090,+0.894,+10.055,+22.700,-4.600,-35.500
10819640,-4.170,-0.460,-0.320,+0.168,+0.999,+10.070,+22.700,-5.300,-34.400
10819650,-5.790,+1.340,-4.870,+0.246,+1.025,+10.016,+22.500,-4.800,-35.400
10819660,-7.790,+1.940,-10.510,+0.210,+0.932,+9.881,+23.200,-4.800,-34.700
10819670,-7.640,+1.350,-17.540,+0.203,+0.826,+9.696,+22.900,-4.800,-34.400
10819680,-7.710,-0.650,-19.840,+0.182,+1.054,+9.742,+22.400,-3.600,-35.000
10819690,-6.540,-0.940,-16.800,+0.171,+1.119,+9.812,+23.500,-3.900,-34.400
10819700,-7.650,-0.350,-17.230,+0.251,+1.124,+9.897,+23.500,-4.400,-34.400
10819710,-8.380,+0.720,-17.690,+0.250,+1.137,+9.919,+22.900,-3.600,-35.700
10819720,-7.640,+0.580,-18.250,+0.257,+1.125,+9.915,+23.200,-4.400,-34.700
10819730,-6.300,+0.710,-17.000,+0.329,+1.138,+9.950,+23.200,-4.300,-34.500
10819740,-3.460,+0.340,-10.710,+0.329,+1.292,+10.010,+23.200,-3.800,-34.700
10819750,+2.630,+0.300,-0.790,+0.127,+1.304,+10.077,+23.300,-4.100,-34.500
10819760,+4.090,+3.820,-0.360,+0.314,+1.025,+9.885,+23.300,-3.900,-34.700
10819770,-1.030,+1.650,-2.120,+0.257,+0.938,+9.803,+23.200,-4.100,-34.400
10819780,-3.270,-0.060,-2.360,+0.212,+0.924,+9.925,+23.800,-3.400,-34.400
10819790,-3.950,+1.270,-3.400,+0.277,+0.983,+9.874,+23.000,-3.800,-34.400
10819800,-4.650,-0.930,-3.750,+0.237,+1.113,+9.848,+23.300,-3.600,-34.400
10819810,-2.180,-1.190,-2.420,+0.153,+1.085,+9.941,+23.200,-3.900,-34.500
10819820,-1.540,+1.320,-4.000,+0.284,+1.007,+9.849,+23.500,-3.600,-35.400
10819830,-5.920,+0.470,-6.870,+0.236,+1.003,+9.775,+23.200,-3.400,-35.700
10819840,-8.740,+0.380,-8.920,+0.175,+0.923,+9.819,+23.300,-4.300,-34.500
10819850,-9.360,+1.320,-9.470,+0.155,+1.026,+9.833,+23.500,-3.600,-34.700
10819860,-8.110,+1.490,-6.710,+0.128,+1.166,+9.857,+23.700,-3.100,-34.700
10819870,-2.360,+1.660,-0.130,+0.037,+1.210,+9.914,+23.700,-2.900,-34.400
10819880,+2.920,+2.320,+1.620,+0.168,+1.005,+9.837,+23.700,-3.300,-34.700
10819890,-0.090,+0.960,-0.570,+0.194,+0.951,+9.713,+23.700,-3.100,-34.500
10819900,-1.590,-0.280,-1.320,+0.038,+0.887,+9.806,+23.500,-3.300,-35.500
10819910,-1.440,+0.410,-1.620,+0.034,+0.881,+9.836,+23.500,-2.900,-35.500
10819920,-2.120,+0.380,-1.890,+0.047,+0.986,+9.818,+23.000,-2.600,-36.700
10819930,-2.310,+0.370,-2.020,+0.042,+0.982,+9.848,+23.300,-3.600,-34.700
10819940,+0.050,-0.280,-0.700,-0.055,+0.945,+9.891,+22.900,-2.300,-36.800
10819950,+0.730,+0.700,-1.390,+0.122,+0.889,+9.865,+22.900,-2.300,-36.700
10819960,-1.840,-0.340,-3.080,+0.112,+0.880,+9.777,+22.900,-2.500,-36.700
10819970,-2.120,-1.600,-4.320,+0.125,+0.925,+9.852,+23.300,-2.600,-35.500
10819980,-1.330,-1.410,-5.030,+0.121,+0.987,+9.857,+23.300,-2.500,-36.800
10819990,+0.630,-1.160,-4.250,+0.069,+0.994,+9.871,+23.500,-3.600,-34.700
10820000,+1.820,-1.250,-3.340,+0.068,+0.963,+9.847,+23.700,-2.800,-34.500
10820010,+1.960,-0.670,-2.720,+0.121,+0.909,+9.848,+23.200,-3.300,-35.000
10820020,+0.020,-0.560,-3.420,+0.121,+0.828,+9.782,+23.300,-2.900,-35.900
10820030,-1.760,-1.150,-3.340,+0.098,+0.796,+9.892,+23.500,-3.400,-35.200
10820040,-1.710,-0.540,-2.820,+0.170,+0.937,+10.044,+23.300,-2.500,-36.000
10820050,-1.820,+0.400,-2.850,+0.184,+1.061,+10.107,+23.300,-3.100,-34.900
10820060,-0.370,+1.270,-2.230,+0.119,+1.072,+10.095,+23.800,-2.600,-34.900
10820070,+1.550,+2.540,-0.340,+0.096,+1.127,+10.071,+24.000,-2.800,-34.500
10820080,+1.290,+4.110,-0.420,+0.186,+1.045,+10.018,+23.800,-3.600,-34.500
10820090,+0.140,+4.150,-0.010,+0.111,+0.981,+9.978,+23.500,-2.800,-35.500
10820100,+0.050,+4.870,+0.070,+0.087,+0.976,+9.893,+23.300,-3.300,-34.500
10820110,-0.790,+5.910,-0.600,+0.108,+1.006,+9.792,+23.800,-2.300,-34.500
10820120,-1.510,+4.640,-1.180,+0.084,+0.978,+9.618,+23.500,-3.400,-34.500
10820130,-1.370,+2.660,-1.340,+0.061,+0.903,+9.553,+23.000,-2.000,-37.300
10820140,-0.510,+0.380,-0.370,+0.001,+0.886,+9.536,+23.800,-3.100,-34.200
10820150,+1.590,-1.410,+1.330,-0.053,+0.896,+9.542,+23.200,-2.800,-35.500
10820160,+2.440,-2.590,+1.800,-0.039,+0.880,+9.692,+23.000,-2.000,-37.200
10820170,+1.950,-2.880,+2.000,+0.001,+0.856,+9.785,+23.800,-3.400,-34.500
10820180,+0.680,-2.560,+1.950,+0.028,+0.876,+9.911,+23.500,-3.300,-34.200
10820190,-0.020,-1.810,+1.590,+0.065,+0.930,+9.990,+24.000,-2.300,-34.600
10820200,-0.410,-0.860,+1.250,+0.089,+0.938,+10.024,+23.700,-3.300,-34.500
10820210,+0.940,+0.060,+2.090,+0.045,+0.994,+10.108,+23.700,-3.300,-34.700
10820220,+1.240,+1.340,+1.850,+0.133,+1.037,+10.023,+23.300,-3.600,-34.200
10820230,+0.650,+1.800,+1.570,+0.178,+1.036,+9.980,+23.700,-3.300,-34.500
10820240,+0.170,+1.840,+1.130,+0.148,+0.956,+9.906,+23.700,-2.900,-35.700
10820250,-0.410,+1.920,+0.940,+0.154,+0.922,+9.837,+23.700,-3.400,-34.400
10820260,-1.660,+0.780,+0.860,+0.179,+0.991,+9.849,+23.200,-3.100,-34.500
10820270,-1.460,+1.120,+1.260,+0.211,+1.077,+9.913,+23.700,-2.500,-34.500
10820280,-0.880,+1.040,+0.700,+0.239,+1.098,+9.863,+23.800,-3.400,-34.500
10820290,-0.840,-0.050,+0.050,+0.222,+1.122,+9.824,+24.000,-2.800,-35.800
10820300,-0.090,-0.370,+0.170,+0.179,+1.130,+9.887,+23.500,-3.300,-34.200
10820310,+0.760,-0.240,-0.060,+0.190,+1.083,+9.905,+23.800,-2.600,-34.700
10820320,+0.260,-0.770,-0.140,+0.184,+1.108,+9.899,+23.700,-3.400,-34.400
10820330,+0.660,-0.110,+0.270,+0.133,+1.079,+9.979,+24.000,-2.600,-34.600
10820340,+1.050,+0.470,+0.170,+0.176,+1.089,+9.966,+23.800,-3.400,-34.500
10820350,-0.110,+0.030,-0.660,+0.209,+1.104,+9.962,+23.700,-2.800,-35.900
10820360,-0.020,+0.320,-1.260,+0.173,+1.049,+10.003,+23.500,-3.400,-34.700
10820370,+1.850,+0.140,-1.270,+0.113,+1.010,+9.959,+23.700,-2.800,-34.700
10820380,+2.690,-0.150,-1.280,+0.160,+0.993,+9.961,+23.800,-2.800,-34.700
10820390,+3.060,-0.150,-0.380,+0.106,+0.924,+9.999,+23.000,-2.900,-36.000
10820400,+4.130,+1.000,+1.170,+0.057,+0.842,+10.035,+24.300,-3.400,-34.300
10820410,+2.250,+2.460,+1.110,+0.143,+0.837,+9.915,+23.000,-2.100,-36.800
10820420,-0.120,+2.310,+0.640,+0.143,+0.943,+9.840,+23.000,-3.300,-34.900
10820430,-0.470,+1.910,-0.040,+0.160,+0.973,+9.768,+23.200,-2.900,-35.400
10820440,-0.190,+0.510,-0.400,+0.164,+1.054,+9.720,+23.200,-2.000,-37.300
10820450,+0.560,-0.860,-0.820,+0.188,+1.057,+9.670,+23.800,-2.600,-34.500
10820460,+1.360,-2.550,-1.510,+0.137,+1.053,+9.738,+23.500,-3.600,-34.500
10820470,+1.660,-2.810,-1.770,+0.112,+1.035,+9.852,+23.700,-2.500,-34.200
10820480,+0.630,-1.450,-2.250,+0.121,+1.012,+9.909,+23.700,-3.600,-34.500
10820490,-1.180,-0.540,-2.800,+0.108,+0.956,+9.945,+23.300,-2.900,-35.400
10820500,-1.870,+0.300,-2.720,+0.089,+0.976,+9.966,+23.500,-3.600,-34.400
10820510,-0.820,+1.000,-2.360,+0.108,+1.028,+9.909,+23.800,-2.800,-34.200
10820520,+0.140,+1.240,-2.290,+0.097,+1.033,+9.795,+23.700,-2.900,-35.500
10820530,+0.670,+0.700,-2.460,+0.069,+0.961,+9.716,+23.800,-3.400,-34.500
10820540,-0.350,-0.530,-2.480,+0.051,+0.911,+9.707,+23.800,-2.600,-34.500
10820550,-0.240,-0.910,-2.030,-0.028,+0.908,+9.806,+23.300,-3.300,-34.700
10820560,-0.350,+0.330,-1.250,+0.025,+0.975,+9.870,+24.000,-2.500,-34.500
10820570,-1.980,+1.630,-1.190,+0.037,+0.994,+9.849,+23.700,-3.400,-34.400
10820580,-1.830,+1.870,-1.040,+0.044,+0.967,+9.833,+23.800,-3.100,-35.000
10820590,-0.840,+1.470,-0.770,+0.060,+1.043,+9.752,+23.800,-2.800,-34.700
10820600,+0.080,+0.000,-0.840,+0.072,+1.074,+9.708,+24.300,-2.600,-34.600
10820610,+1.420,-1.570,-1.070,+0.096,+1.083,+9.739,+23.800,-3.400,-34.400
10820620,+3.640,-2.690,-0.880,+0.032,+1.051,+9.858,+24.000,-2.900,-35.500
10820630,+4.950,-2.330,-0.340,+0.042,+0.999,+9.975,+23.500,-2.900,-35.700
10820640,+3.730,-0.760,-0.500,+0.044,+0.926,+10.004,+23.300,-2.500,-36.300
10820650,+0.690,+0.730,-0.790,+0.025,+0.937,+9.930,+23.500,-3.300,-34.500
10820660,-3.050,+3.360,-2.220,+0.101,+0.926,+9.783,+23.500,-2.600,-36.800
10820670,-5.010,+2.250,-2.450,+0.047,+0.940,+9.791,+23.700,-3.300,-34.200
10820680,-4.060,+1.470,-2.290,+0.050,+1.011,+9.851,+24.000,-3.600,-34.300
10820690,-1.610,+0.940,-2.060,+0.052,+1.037,+9.878,+23.800,-2.600,-35.500
10820700,+0.800,-0.700,-1.310,+0.020,+0.989,+9.859,+24.000,-2.800,-35.500
10820710,+1.700,-0.300,-1.000,+0.026,+0.909,+9.832,+23.700,-3.600,-34.500
10820720,+0.250,-0.320,-0.890,+0.028,+0.891,+9.839,+23.300,-2.000,-36.300
10820730,-1.090,-0.510,-0.950,+0.044,+0.923,+9.837,+23.700,-3.100,-34.200
10820740,-1.120,-0.210,-0.960,+0.046,+0.966,+9.891,+23.300,-2.300,-36.500
10820750,-0.210,-1.130,-1.060,+0.083,+1.044,+9.906,+23.800,-3.100,-34.400
10820760,+1.490,-1.680,-1.140,+0.097,+1.065,+9.966,+23.800,-2.900,-34.400
10820770,+2.780,-1.500,-0.910,+0.085,+0.982,+9.971,+24.100,-2.900,-34.500
10820780,+2.180,-1.030,-0.800,+0.047,+0.911,+9.961,+23.700,-3.100,-34.700
10820790,-0.350,+0.360,-0.990,+0.041,+0.826,+9.924,+23.300,-2.500,-36.700
10820800,-2.970,+1.020,-1.410,+0.037,+0.865,+9.900,+23.500,-2.500,-36.800
10820810,-3.080,+0.940,-1.040,+0.048,+0.998,+9.950,+23.500,-3.300,-34.500
10820820,-0.850,+1.110,-0.490,+0.081,+1.119,+9.884,+23.700,-2.900,-35.500
